// General information: 
//  MT Manager version: 2022.2.0 
//  XDA version: 2022.2.0 build 7381 rev 124627 built on 2023-07-19
// Device information: 
//  DeviceId: 10B41515
//  ProductCode: MTW2-3A7G6
//  Firmware Version: 4.14.0
//  Hardware Version: 3.0.0
// Device settings: 
//  Filter Profile: human(46.1)
//  Option Flags: Orientation Smoother Disabled, Position/Velocity Smoother Disabled, Continuous Zero Rotation Update Disabled, AHS Disabled, ICC Disabled
// Coordinate system: ENU
PacketCounter	SampleTimeFine	Quat_q0	Quat_q1	Quat_q2	Quat_q3	Roll	Pitch	Yaw
00370		-0.103521	-0.210312	-0.690377	0.684421	-92.648632	25.519664	170.516684
00371		-0.104295	-0.209933	-0.690150	0.684649	-92.589399	25.557639	170.624764
00372		-0.105060	-0.209608	-0.689876	0.684907	-92.524988	25.599726	170.728657
00373		-0.105694	-0.209393	-0.689652	0.685101	-92.474915	25.638720	170.809361
00374		-0.106165	-0.209365	-0.689464	0.685226	-92.441331	25.678388	170.857055
00375		-0.106539	-0.209456	-0.689295	0.685310	-92.417362	25.719086	170.884543
00376		-0.106888	-0.209549	-0.689149	0.685374	-92.397414	25.757472	170.908920
00377		-0.107312	-0.209537	-0.688983	0.685478	-92.368430	25.794096	170.950634
00378		-0.107903	-0.209362	-0.688752	0.685671	-92.319256	25.832644	171.024245
00379		-0.108701	-0.209020	-0.688493	0.685910	-92.256412	25.875514	171.132213
00380		-0.109660	-0.208539	-0.688268	0.686129	-92.192210	25.920238	171.265463
00381		-0.110663	-0.208027	-0.688144	0.686248	-92.144013	25.964886	171.401381
00382		-0.111615	-0.207509	-0.688150	0.686244	-92.118364	26.003106	171.528451
00383		-0.112487	-0.206958	-0.688183	0.686235	-92.095513	26.031650	171.651427
00384		-0.113252	-0.206466	-0.688203	0.686238	-92.073354	26.056061	171.760585
00385		-0.113918	-0.206074	-0.688169	0.686279	-92.047279	26.080817	171.853889
00386		-0.114449	-0.205839	-0.688107	0.686324	-92.024486	26.107127	171.922231
00387		-0.114848	-0.205717	-0.688051	0.686350	-92.008528	26.131337	171.968644
00388		-0.115227	-0.205631	-0.688073	0.686291	-92.008312	26.155889	172.006592
00389		-0.115642	-0.205506	-0.688122	0.686209	-92.010875	26.179948	172.050165
00390		-0.116034	-0.205398	-0.688187	0.686110	-92.017010	26.203233	172.089670
00391		-0.116328	-0.205351	-0.688226	0.686035	-92.021809	26.223582	172.116237
00392		-0.116526	-0.205392	-0.688242	0.685972	-92.027157	26.243266	172.127499
00393		-0.116641	-0.205478	-0.688236	0.685933	-92.030873	26.259845	172.128437
00394		-0.116753	-0.205546	-0.688226	0.685904	-92.032884	26.274634	172.131192
00395		-0.116889	-0.205549	-0.688208	0.685898	-92.030135	26.286402	172.142500
00396		-0.117027	-0.205518	-0.688213	0.685878	-92.029608	26.295489	172.156370
00397		-0.117132	-0.205542	-0.688255	0.685811	-92.038448	26.305683	172.160708
00398		-0.117144	-0.205645	-0.688296	0.685738	-92.051055	26.314362	172.149900
00399		-0.117130	-0.205822	-0.688379	0.685603	-92.075315	26.326468	172.127844
00400		-0.117064	-0.206038	-0.688485	0.685443	-92.105542	26.336898	172.096787
00401		-0.116966	-0.206264	-0.688589	0.685287	-92.136023	26.345550	172.062318
00402		-0.116940	-0.206420	-0.688681	0.685153	-92.160458	26.354721	172.041153
00403		-0.117026	-0.206427	-0.688722	0.685094	-92.168372	26.362021	172.045562
00404		-0.117191	-0.206296	-0.688715	0.685113	-92.160252	26.365369	172.072052
00405		-0.117398	-0.206056	-0.688664	0.685201	-92.138554	26.364205	172.114452
00406		-0.117597	-0.205819	-0.688600	0.685303	-92.114696	26.362661	172.156511
00407		-0.117757	-0.205592	-0.688515	0.685429	-92.087709	26.358859	172.195245
00408		-0.117890	-0.205359	-0.688435	0.685556	-92.061192	26.352324	172.232267
00409		-0.118002	-0.205147	-0.688359	0.685676	-92.036623	26.345630	172.265282
00410		-0.118121	-0.204928	-0.688307	0.685774	-92.015759	26.338632	172.298598
00411		-0.118257	-0.204714	-0.688282	0.685839	-92.000184	26.333136	172.331676
00412		-0.118406	-0.204481	-0.688314	0.685851	-91.993463	26.326655	172.365303
00413		-0.118586	-0.204286	-0.688354	0.685838	-91.990189	26.325638	172.397394
00414		-0.118812	-0.204013	-0.688399	0.685835	-91.983899	26.322250	172.440570
00415		-0.119102	-0.203663	-0.688392	0.685895	-91.964395	26.318519	172.498694
00416		-0.119468	-0.203260	-0.688355	0.685989	-91.936743	26.317191	172.569345
00417		-0.119891	-0.202848	-0.688285	0.686107	-91.903143	26.320307	172.646744
00418		-0.120317	-0.202455	-0.688220	0.686213	-91.871409	26.325094	172.722315
00419		-0.120725	-0.202054	-0.688172	0.686308	-91.842206	26.327543	172.796539
00420		-0.121085	-0.201664	-0.688143	0.686389	-91.816993	26.326614	172.864975
00421		-0.121423	-0.201292	-0.688076	0.686505	-91.785968	26.325667	172.931472
00422		-0.121745	-0.200983	-0.688014	0.686601	-91.759214	26.328398	172.990316
00423		-0.122095	-0.200745	-0.687959	0.686663	-91.737531	26.339016	173.044081
00424		-0.122406	-0.200589	-0.687984	0.686629	-91.733996	26.352137	173.083528
00425		-0.122649	-0.200480	-0.688031	0.686570	-91.736943	26.363238	173.111817
00426		-0.122884	-0.200369	-0.688091	0.686500	-91.741935	26.373279	173.139148
00427		-0.123198	-0.200178	-0.688115	0.686476	-91.736496	26.383921	173.182248
00428		-0.123645	-0.199922	-0.688122	0.686463	-91.724951	26.400522	173.243055
00429		-0.124195	-0.199579	-0.688118	0.686468	-91.706847	26.418887	173.321260
00430		-0.124719	-0.199228	-0.688111	0.686481	-91.688084	26.434445	173.398224
00431		-0.125138	-0.198896	-0.688119	0.686494	-91.672538	26.442632	173.464211
00432		-0.125451	-0.198639	-0.688129	0.686500	-91.661388	26.447988	173.514243
00433		-0.125682	-0.198444	-0.688154	0.686489	-91.655951	26.451305	173.550924
00434		-0.125874	-0.198326	-0.688195	0.686448	-91.657157	26.457452	173.576321
00435		-0.126033	-0.198260	-0.688214	0.686418	-91.657431	26.465180	173.594737
00436		-0.126128	-0.198274	-0.688198	0.686413	-91.655371	26.474432	173.601799
00437		-0.126196	-0.198374	-0.688143	0.686426	-91.650999	26.488623	173.599698
00438		-0.126221	-0.198584	-0.688082	0.686423	-91.651137	26.508222	173.583744
00439		-0.126202	-0.198893	-0.688063	0.686355	-91.663889	26.531718	173.552761
00440		-0.126190	-0.199190	-0.688092	0.686242	-91.684539	26.554267	173.521456
00441		-0.126244	-0.199379	-0.688155	0.686115	-91.705529	26.573475	173.504663
00442		-0.126396	-0.199385	-0.688255	0.685985	-91.723588	26.585644	173.512204
00443		-0.126650	-0.199241	-0.688336	0.685899	-91.730638	26.594515	173.543522
00444		-0.126988	-0.198988	-0.688430	0.685815	-91.734533	26.601528	173.591702
00445		-0.127429	-0.198637	-0.688489	0.685776	-91.727089	26.609539	173.659246
00446		-0.127912	-0.198171	-0.688468	0.685842	-91.699773	26.612492	173.744822
00447		-0.128501	-0.197619	-0.688293	0.686067	-91.640906	26.618803	173.853681
00448		-0.129095	-0.197094	-0.688080	0.686319	-91.577001	26.627833	173.961920
00449		-0.129635	-0.196715	-0.687884	0.686523	-91.523478	26.644012	174.050807
00450		-0.130017	-0.196576	-0.687766	0.686608	-91.495920	26.665735	174.100323
00451		-0.130172	-0.196648	-0.687751	0.686573	-91.497182	26.684578	174.106393
00452		-0.130171	-0.196808	-0.687819	0.686460	-91.517392	26.696876	174.087924
00453		-0.130131	-0.196926	-0.687922	0.686331	-91.541464	26.702130	174.068881
00454		-0.130173	-0.196919	-0.687985	0.686261	-91.552447	26.704561	174.070233
00455		-0.130348	-0.196739	-0.688000	0.686264	-91.545949	26.704516	174.101390
00456		-0.130609	-0.196454	-0.687981	0.686316	-91.528185	26.703401	174.151108
00457		-0.130854	-0.196184	-0.687990	0.686337	-91.516108	26.701894	174.197059
00458		-0.131077	-0.195988	-0.688031	0.686310	-91.513566	26.704355	174.232462
00459		-0.131281	-0.195838	-0.688094	0.686250	-91.517264	26.708738	174.260993
00460		-0.131430	-0.195718	-0.688216	0.686133	-91.532734	26.710448	174.279815
00461		-0.131500	-0.195678	-0.688322	0.686025	-91.549427	26.712217	174.284896
00462		-0.131437	-0.195758	-0.688414	0.685923	-91.569656	26.712620	174.268228
00463		-0.131288	-0.195977	-0.688413	0.685889	-91.580627	26.717882	174.234716
00464		-0.131103	-0.196292	-0.688395	0.685852	-91.593515	26.728054	174.189673
00465		-0.130925	-0.196652	-0.688361	0.685817	-91.605874	26.742459	174.141505
00466		-0.130739	-0.197023	-0.688354	0.685754	-91.623503	26.757048	174.090487
00467		-0.130527	-0.197383	-0.688354	0.685691	-91.641915	26.768352	174.038126
00468		-0.130345	-0.197718	-0.688325	0.685658	-91.653913	26.780511	173.991763
00469		-0.130162	-0.197990	-0.688303	0.685636	-91.664075	26.787315	173.951241
00470		-0.130003	-0.198253	-0.688322	0.685571	-91.680831	26.795040	173.911781
00471		-0.129887	-0.198479	-0.688356	0.685494	-91.698500	26.803330	173.878866
00472		-0.129801	-0.198682	-0.688471	0.685335	-91.729386	26.811428	173.847155
00473		-0.129735	-0.198855	-0.688637	0.685131	-91.767686	26.818430	173.817786
00474		-0.129676	-0.199020	-0.688820	0.684911	-91.808483	26.825058	173.789200
00475		-0.129625	-0.199182	-0.688926	0.684766	-91.835699	26.832985	173.764689
00476		-0.129591	-0.199391	-0.688930	0.684707	-91.847432	26.846927	173.741197
00477		-0.129550	-0.199656	-0.688852	0.684717	-91.847464	26.865501	173.715076
00478		-0.129470	-0.200001	-0.688757	0.684727	-91.848762	26.887459	173.678740
00479		-0.129344	-0.200365	-0.688663	0.684739	-91.851147	26.907024	173.636662
00480		-0.129198	-0.200715	-0.688612	0.684715	-91.860388	26.923521	173.592596
00481		-0.129073	-0.201031	-0.688562	0.684697	-91.868114	26.938890	173.553417
00482		-0.129038	-0.201285	-0.688515	0.684675	-91.873300	26.956850	173.527567
00483		-0.129070	-0.201427	-0.688490	0.684653	-91.876440	26.971088	173.517207
00484		-0.129147	-0.201490	-0.688522	0.684587	-91.885591	26.982383	173.515875
00485		-0.129202	-0.201516	-0.688639	0.684452	-91.907776	26.987972	173.512699
00486		-0.129215	-0.201546	-0.688814	0.684264	-91.940351	26.989763	173.503396
00487		-0.129267	-0.201555	-0.688911	0.684155	-91.958021	26.993909	173.502633
00488		-0.129361	-0.201556	-0.688922	0.684125	-91.960237	27.001774	173.509558
00489		-0.129511	-0.201537	-0.688820	0.684206	-91.941250	27.013756	173.527909
00490		-0.129671	-0.201524	-0.688658	0.684341	-91.912261	27.027687	173.548923
00491		-0.129826	-0.201535	-0.688510	0.684458	-91.886784	27.042917	173.566665
00492		-0.129932	-0.201557	-0.688419	0.684523	-91.871885	27.054424	173.576962
00493		-0.130051	-0.201605	-0.688347	0.684559	-91.861951	27.068823	173.584795
00494		-0.130107	-0.201686	-0.688305	0.684567	-91.858849	27.080442	173.583142
00495		-0.130137	-0.201817	-0.688277	0.684550	-91.861070	27.093816	173.573711
00496		-0.130177	-0.201969	-0.688311	0.684464	-91.875054	27.109038	173.560630
00497		-0.130257	-0.202047	-0.688394	0.684342	-91.894070	27.121182	173.555741
00498		-0.130425	-0.201997	-0.688505	0.684213	-91.911338	27.130276	173.569505
00499		-0.130662	-0.201790	-0.688614	0.684119	-91.919972	27.132417	173.604396
00500		-0.130964	-0.201458	-0.688662	0.684110	-91.911284	27.130587	173.659522
00501		-0.131317	-0.201067	-0.688624	0.684196	-91.884205	27.129005	173.728240
00502		-0.131732	-0.200692	-0.688496	0.684356	-91.842148	27.134694	173.804155
00503		-0.132118	-0.200405	-0.688351	0.684511	-91.801808	27.145146	173.869868
00504		-0.132364	-0.200352	-0.688258	0.684573	-91.782782	27.162270	173.898874
00505		-0.132408	-0.200523	-0.688207	0.684566	-91.782830	27.180254	173.887746
00506		-0.132325	-0.200794	-0.688192	0.684517	-91.794526	27.195250	173.854997
00507		-0.132224	-0.201054	-0.688153	0.684500	-91.801212	27.208075	173.822879
00508		-0.132174	-0.201205	-0.688124	0.684494	-91.804052	27.216311	173.805141
00509		-0.132224	-0.201250	-0.688152	0.684442	-91.811578	27.223898	173.803464
00510		-0.132356	-0.201178	-0.688228	0.684362	-91.821361	27.228418	173.818067
00511		-0.132540	-0.201001	-0.688305	0.684301	-91.825877	27.228819	173.847031
00512		-0.132733	-0.200778	-0.688378	0.684256	-91.827168	27.226495	173.881526
00513		-0.132937	-0.200560	-0.688386	0.684272	-91.817299	27.225849	173.919105
00514		-0.133130	-0.200382	-0.688312	0.684361	-91.794999	27.228303	173.955509
00515		-0.133242	-0.200324	-0.688160	0.684509	-91.765114	27.234364	173.976742
00516		-0.133236	-0.200428	-0.688034	0.684607	-91.748235	27.243379	173.971431
00517		-0.133129	-0.200644	-0.687936	0.684662	-91.742298	27.252706	173.945648
00518		-0.132969	-0.200850	-0.687885	0.684684	-91.743887	27.256364	173.914683
00519		-0.132875	-0.200986	-0.687858	0.684690	-91.746140	27.259719	173.894756
00520		-0.132919	-0.200987	-0.687865	0.684674	-91.747525	27.263442	173.897880
00521		-0.133106	-0.200835	-0.687921	0.684626	-91.749700	27.266323	173.925616
00522		-0.133372	-0.200544	-0.688036	0.684544	-91.754912	27.264120	173.970905
00523		-0.133652	-0.200175	-0.688167	0.684465	-91.759131	27.256595	174.024248
00524		-0.133930	-0.199843	-0.688305	0.684370	-91.766252	27.251800	174.073570
00525		-0.134200	-0.199572	-0.688371	0.684329	-91.764085	27.251992	174.119214
00526		-0.134430	-0.199422	-0.688380	0.684319	-91.758079	27.259087	174.152244
00527		-0.134502	-0.199444	-0.688360	0.684319	-91.755729	27.267068	174.156763
00528		-0.134457	-0.199630	-0.688313	0.684321	-91.757166	27.278644	174.136837
00529		-0.134356	-0.199891	-0.688222	0.684356	-91.754673	27.292082	174.106864
00530		-0.134302	-0.200123	-0.688127	0.684394	-91.750034	27.307093	174.083739
00531		-0.134331	-0.200241	-0.688033	0.684448	-91.739667	27.319829	174.078436
00532		-0.134407	-0.200285	-0.687986	0.684468	-91.733712	27.330150	174.082309
00533		-0.134466	-0.200281	-0.688020	0.684424	-91.739537	27.334506	174.086040
00534		-0.134507	-0.200321	-0.688128	0.684295	-91.760897	27.340175	174.080708
00535		-0.134545	-0.200356	-0.688283	0.684121	-91.790375	27.344961	174.073614
00536		-0.134620	-0.200407	-0.688454	0.683919	-91.823569	27.353838	174.067281
00537		-0.134705	-0.200469	-0.688557	0.683780	-91.845327	27.365005	174.063579
00538		-0.134791	-0.200534	-0.688592	0.683709	-91.855060	27.377152	174.062641
00539		-0.134860	-0.200587	-0.688529	0.683744	-91.846709	27.387789	174.065643
00540		-0.134949	-0.200656	-0.688443	0.683793	-91.835275	27.401496	174.069738
00541		-0.135024	-0.200753	-0.688364	0.683829	-91.826440	27.416353	174.069640
00542		-0.135111	-0.200815	-0.688318	0.683839	-91.821817	27.429040	174.072493
00543		-0.135209	-0.200843	-0.688293	0.683837	-91.818916	27.439670	174.078786
00544		-0.135338	-0.200855	-0.688292	0.683809	-91.819636	27.451486	174.087999
00545		-0.135474	-0.200863	-0.688321	0.683751	-91.825313	27.463288	174.096972
00546		-0.135605	-0.200895	-0.688435	0.683600	-91.847584	27.475797	174.099415
00547		-0.135711	-0.200936	-0.688607	0.683394	-91.880386	27.486487	174.096499
00548		-0.135698	-0.201078	-0.688840	0.683120	-91.929523	27.494915	174.071224
00549		-0.135613	-0.201294	-0.689022	0.682889	-91.973307	27.503532	174.035085
00550		-0.135508	-0.201543	-0.689107	0.682752	-92.001509	27.514093	173.998315
00551		-0.135426	-0.201819	-0.689031	0.682763	-92.002648	27.530113	173.967647
00552		-0.135384	-0.202069	-0.688864	0.682866	-91.986239	27.548170	173.946663
00553		-0.135335	-0.202279	-0.688666	0.683013	-91.962352	27.562796	173.930479
00554		-0.135271	-0.202500	-0.688506	0.683122	-91.945586	27.576612	173.910434
00555		-0.135204	-0.202700	-0.688416	0.683166	-91.940257	27.587901	173.888986
00556		-0.135196	-0.202862	-0.688432	0.683104	-91.951778	27.600177	173.871614
00557		-0.135230	-0.202973	-0.688545	0.682950	-91.977996	27.610906	173.858359
00558		-0.135287	-0.203030	-0.688726	0.682739	-92.013342	27.618681	173.849458
00559		-0.135305	-0.203044	-0.688979	0.682476	-92.059290	27.618983	173.838454
00560		-0.135307	-0.203059	-0.689216	0.682232	-92.102216	27.618269	173.826847
00561		-0.135293	-0.203074	-0.689378	0.682067	-92.131853	27.616837	173.817104
00562		-0.135275	-0.203059	-0.689452	0.682000	-92.144224	27.613398	173.813919
00563		-0.135237	-0.203013	-0.689387	0.682087	-92.130129	27.607183	173.818272
00564		-0.135203	-0.202991	-0.689221	0.682268	-92.099206	27.604000	173.825048
00565		-0.135095	-0.203024	-0.689042	0.682460	-92.068950	27.599204	173.820882
00566		-0.134987	-0.203108	-0.688882	0.682618	-92.044869	27.598372	173.810744
00567		-0.134840	-0.203222	-0.688782	0.682714	-92.032971	27.596080	173.791973
00568		-0.134701	-0.203279	-0.688764	0.682743	-92.032661	27.589155	173.775874
00569		-0.134588	-0.203292	-0.688802	0.682723	-92.039974	27.580379	173.763771
00570		-0.134531	-0.203239	-0.688887	0.682664	-92.052087	27.570633	173.760813
00571		-0.134579	-0.203101	-0.688981	0.682601	-92.061506	27.562655	173.774221
00572		-0.134680	-0.202868	-0.689115	0.682515	-92.072955	27.551168	173.799642
00573		-0.134818	-0.202615	-0.689208	0.682469	-92.076063	27.541624	173.831931
00574		-0.134915	-0.202354	-0.689261	0.682474	-92.071572	27.528282	173.863348
00575		-0.134989	-0.202156	-0.689227	0.682552	-92.054982	27.518830	173.890385
00576		-0.135021	-0.202071	-0.689117	0.682682	-92.030916	27.515682	173.906244
00577		-0.134986	-0.202091	-0.688954	0.682847	-92.002856	27.515841	173.908519
00578		-0.134898	-0.202196	-0.688784	0.683005	-91.978174	27.518374	173.898319
00579		-0.134786	-0.202324	-0.688642	0.683132	-91.959601	27.520554	173.882900
00580		-0.134719	-0.202347	-0.688518	0.683264	-91.938677	27.517860	173.880565
00581		-0.134662	-0.202283	-0.688468	0.683344	-91.926364	27.508448	173.884425
00582		-0.134681	-0.202153	-0.688430	0.683418	-91.912526	27.499878	173.900463
00583		-0.134746	-0.202014	-0.688430	0.683446	-91.905144	27.494112	173.919501
00584		-0.134859	-0.201860	-0.688492	0.683406	-91.908174	27.490567	173.941181
00585		-0.135008	-0.201736	-0.688608	0.683297	-91.922335	27.492110	173.960434
00586		-0.135216	-0.201661	-0.688760	0.683125	-91.945627	27.502194	173.978066
00587		-0.135434	-0.201610	-0.688889	0.682966	-91.966184	27.515199	173.995117
00588		-0.135638	-0.201554	-0.688952	0.682879	-91.974792	27.527225	174.014325
00589		-0.135768	-0.201465	-0.688955	0.682876	-91.970749	27.530995	174.033543
00590		-0.135869	-0.201383	-0.688856	0.682981	-91.948783	27.533628	174.054143
00591		-0.135905	-0.201263	-0.688710	0.683156	-91.916463	27.528304	174.075259
00592		-0.135931	-0.201172	-0.688569	0.683319	-91.886611	27.524329	174.092563
00593		-0.135937	-0.201136	-0.688491	0.683408	-91.870710	27.522584	174.100038
00594		-0.135931	-0.201188	-0.688492	0.683392	-91.873764	27.526265	174.094216
00595		-0.135946	-0.201287	-0.688560	0.683292	-91.891060	27.534933	174.082749
00596		-0.135979	-0.201388	-0.688707	0.683107	-91.922823	27.544590	174.068942
00597		-0.136092	-0.201425	-0.688907	0.682872	-91.960566	27.555270	174.065753
00598		-0.136261	-0.201270	-0.689140	0.682649	-91.993928	27.554995	174.084645
00599		-0.136487	-0.200927	-0.689323	0.682520	-92.008551	27.544684	174.128810
00600		-0.136757	-0.200417	-0.689406	0.682532	-91.996530	27.525628	174.197528
00601		-0.137047	-0.199862	-0.689334	0.682709	-91.954636	27.505694	174.278986
00602		-0.137309	-0.199387	-0.689138	0.682993	-91.894932	27.491038	174.355677
00603		-0.137452	-0.199069	-0.688847	0.683351	-91.826433	27.479750	174.411286
00604		-0.137450	-0.199014	-0.688536	0.683681	-91.768246	27.477603	174.429952
00605		-0.137309	-0.199107	-0.688318	0.683901	-91.734325	27.475164	174.418805
00606		-0.137138	-0.199274	-0.688240	0.683966	-91.728907	27.474938	174.391994
00607		-0.137100	-0.199288	-0.688249	0.683960	-91.731335	27.472840	174.387096
00608		-0.137220	-0.199075	-0.688350	0.683896	-91.738160	27.464849	174.413451
00609		-0.137459	-0.198647	-0.688479	0.683843	-91.738816	27.449222	174.469387
00610		-0.137738	-0.198150	-0.688586	0.683823	-91.732221	27.431558	174.536253
00611		-0.138003	-0.197724	-0.688645	0.683834	-91.720622	27.418801	174.597176
00612		-0.138179	-0.197466	-0.688636	0.683882	-91.705686	27.412702	174.637214
00613		-0.138261	-0.197382	-0.688609	0.683916	-91.696747	27.413029	174.653184
00614		-0.138281	-0.197445	-0.688559	0.683945	-91.691075	27.420194	174.650839
00615		-0.138261	-0.197518	-0.688512	0.683975	-91.686613	27.424770	174.643982
00616		-0.138247	-0.197575	-0.688485	0.683988	-91.684737	27.428412	174.638537
00617		-0.138202	-0.197596	-0.688472	0.684004	-91.683500	27.426460	174.633359
00618		-0.138157	-0.197550	-0.688460	0.684039	-91.678959	27.419031	174.634638
00619		-0.138172	-0.197410	-0.688397	0.684140	-91.660407	27.409493	174.652469
00620		-0.138244	-0.197243	-0.688354	0.684217	-91.644127	27.402293	174.676483
00621		-0.138360	-0.197053	-0.688320	0.684282	-91.628357	27.396931	174.706103
00622		-0.138521	-0.196876	-0.688336	0.684284	-91.622240	27.395951	174.735840
00623		-0.138687	-0.196689	-0.688408	0.684232	-91.625392	27.394179	174.764558
00624		-0.138895	-0.196497	-0.688487	0.684166	-91.629726	27.395424	174.796848
00625		-0.139134	-0.196298	-0.688573	0.684088	-91.634999	27.398633	174.832084
00626		-0.139386	-0.196116	-0.688661	0.684001	-91.641413	27.404291	174.866545
00627		-0.139613	-0.195887	-0.688736	0.683944	-91.643177	27.404115	174.904198
00628		-0.139777	-0.195614	-0.688788	0.683936	-91.638505	27.395436	174.942048
00629		-0.139919	-0.195364	-0.688772	0.683995	-91.622968	27.387072	174.978791
00630		-0.140039	-0.195133	-0.688665	0.684144	-91.592230	27.379225	175.015743
00631		-0.140090	-0.195000	-0.688563	0.684274	-91.567240	27.373383	175.037380
00632		-0.140078	-0.194952	-0.688495	0.684359	-91.552674	27.369069	175.044061
00633		-0.140060	-0.194928	-0.688478	0.684386	-91.548477	27.365714	175.045662
00634		-0.140026	-0.194908	-0.688524	0.684353	-91.555481	27.360905	175.042883
00635		-0.139978	-0.194917	-0.688577	0.684307	-91.565320	27.357221	175.035865
00636		-0.139881	-0.194922	-0.688657	0.684244	-91.579691	27.348953	175.024071
00637		-0.139847	-0.194907	-0.688679	0.684233	-91.582790	27.344766	175.021801
00638		-0.139879	-0.194807	-0.688686	0.684249	-91.578880	27.339196	175.033868
00639		-0.139951	-0.194656	-0.688679	0.684283	-91.570036	27.333083	175.054765
00640		-0.140064	-0.194489	-0.688656	0.684331	-91.557524	27.329137	175.081289
00641		-0.140176	-0.194327	-0.688647	0.684363	-91.547680	27.325498	175.106647
00642		-0.140280	-0.194164	-0.688669	0.684366	-91.543437	27.320826	175.130071
00643		-0.140427	-0.193952	-0.688663	0.684402	-91.531586	27.315919	175.163070
00644		-0.140614	-0.193652	-0.688636	0.684475	-91.511799	27.307420	175.208679
00645		-0.140882	-0.193289	-0.688587	0.684572	-91.484849	27.300657	175.268104
00646		-0.141254	-0.192818	-0.688496	0.684721	-91.444996	27.294133	175.348290
00647		-0.141584	-0.192355	-0.688402	0.684877	-91.405203	27.284759	175.424302
00648		-0.141797	-0.192010	-0.688348	0.684984	-91.378421	27.274822	175.477574
00649		-0.141893	-0.191788	-0.688335	0.685039	-91.365000	27.264847	175.507574
00650		-0.141927	-0.191656	-0.688384	0.685020	-91.367115	27.256646	175.521191
00651		-0.141948	-0.191558	-0.688453	0.684973	-91.374454	27.249982	175.529382
00652		-0.141965	-0.191424	-0.688495	0.684965	-91.375138	27.240180	175.542074
00653		-0.142044	-0.191258	-0.688455	0.685036	-91.359756	27.233568	175.566370
00654		-0.142141	-0.191093	-0.688414	0.685103	-91.344264	27.228444	175.592102
00655		-0.142269	-0.190920	-0.688343	0.685195	-91.323176	27.225592	175.622410
00656		-0.142423	-0.190751	-0.688259	0.685295	-91.299987	27.225220	175.655005
00657		-0.142586	-0.190582	-0.688181	0.685386	-91.277800	27.225569	175.688021
00658		-0.142726	-0.190422	-0.688099	0.685484	-91.255359	27.224715	175.718597
00659		-0.142849	-0.190326	-0.688010	0.685575	-91.234829	27.227738	175.741766
00660		-0.143005	-0.190216	-0.687928	0.685655	-91.214961	27.232342	175.768697
00661		-0.143245	-0.190058	-0.687859	0.685718	-91.195154	27.239845	175.806499
00662		-0.143558	-0.189820	-0.687805	0.685772	-91.174039	27.246893	175.857452
00663		-0.143916	-0.189562	-0.687751	0.685822	-91.151926	27.256160	175.914052
00664		-0.144232	-0.189348	-0.687730	0.685837	-91.137706	27.265117	175.961558
00665		-0.144487	-0.189193	-0.687727	0.685829	-91.129723	27.273863	175.997543
00666		-0.144730	-0.189070	-0.687750	0.685788	-91.127926	27.283932	176.028399
00667		-0.145016	-0.188892	-0.687753	0.685774	-91.119939	27.293228	176.068852
00668		-0.145321	-0.188715	-0.687741	0.685771	-91.109180	27.304304	176.111480
00669		-0.145626	-0.188548	-0.687694	0.685798	-91.092957	27.316363	176.154554
00670		-0.145873	-0.188424	-0.687627	0.685847	-91.075196	27.327323	176.189614
00671		-0.146056	-0.188401	-0.687533	0.685909	-91.057359	27.341237	176.210969
00672		-0.146170	-0.188409	-0.687442	0.685974	-91.041734	27.351845	176.223400
00673		-0.146298	-0.188410	-0.687342	0.686046	-91.024184	27.363238	176.238075
00674		-0.146450	-0.188382	-0.687291	0.686073	-91.013830	27.373820	176.255433
00675		-0.146648	-0.188295	-0.687263	0.686082	-91.004809	27.383430	176.281308
00676		-0.146892	-0.188168	-0.687280	0.686048	-91.001670	27.393307	176.312779
00677		-0.147188	-0.188012	-0.687312	0.685995	-90.999970	27.405104	176.350813
00678		-0.147489	-0.187866	-0.687405	0.685877	-91.009446	27.417719	176.385524
00679		-0.147842	-0.187698	-0.687472	0.685780	-91.013415	27.433116	176.427784
00680		-0.148220	-0.187488	-0.687527	0.685701	-91.013112	27.447264	176.476652
00681		-0.148618	-0.187213	-0.687529	0.685688	-91.000276	27.457969	176.535768
00682		-0.149020	-0.186916	-0.687493	0.685718	-90.979556	27.467422	176.599009
00683		-0.149414	-0.186606	-0.687453	0.685757	-90.957547	27.475049	176.663048
00684		-0.149789	-0.186272	-0.687415	0.685804	-90.934734	27.479226	176.727763
00685		-0.150129	-0.185992	-0.687344	0.685876	-90.908810	27.484981	176.785766
00686		-0.150425	-0.185803	-0.687264	0.685943	-90.885466	27.494563	176.831769
00687		-0.150619	-0.185675	-0.687181	0.686018	-90.864736	27.500614	176.863647
00688		-0.150750	-0.185615	-0.687114	0.686072	-90.850031	27.506946	176.883103
00689		-0.150834	-0.185537	-0.687060	0.686129	-90.836653	27.507724	176.899872
00690		-0.150913	-0.185423	-0.687000	0.686203	-90.820512	27.505294	176.919971
00691		-0.151076	-0.185250	-0.686928	0.686286	-90.799424	27.504936	176.953188
00692		-0.151294	-0.184994	-0.686900	0.686335	-90.782177	27.502234	176.997045
00693		-0.151548	-0.184760	-0.686908	0.686334	-90.772477	27.504167	177.040038
00694		-0.151745	-0.184601	-0.687000	0.686241	-90.781272	27.507151	177.067658
00695		-0.151938	-0.184481	-0.687107	0.686124	-90.794521	27.512927	177.090386
00696		-0.152121	-0.184400	-0.687221	0.685991	-90.810989	27.521067	177.108231
00697		-0.152277	-0.184376	-0.687291	0.685892	-90.822410	27.531774	177.120344
00698		-0.152413	-0.184424	-0.687314	0.685826	-90.828859	27.547021	177.125903
00699		-0.152483	-0.184562	-0.687308	0.685780	-90.834420	27.564331	177.118643
00700		-0.152552	-0.184734	-0.687256	0.685770	-90.833610	27.584326	177.109963
00701		-0.152621	-0.184864	-0.687231	0.685744	-90.835542	27.600974	177.104211
00702		-0.152723	-0.184964	-0.687214	0.685712	-90.837429	27.617770	177.103724
00703		-0.152859	-0.185029	-0.687237	0.685641	-90.844769	27.634340	177.107562
00704		-0.153027	-0.185073	-0.687330	0.685498	-90.863571	27.651698	177.113037
00705		-0.153175	-0.185059	-0.687480	0.685318	-90.889676	27.662273	177.119970
00706		-0.153273	-0.185050	-0.687669	0.685110	-90.922794	27.668852	177.120650
00707		-0.153357	-0.185060	-0.687811	0.684946	-90.948612	27.676106	177.120411
00708		-0.153507	-0.185094	-0.687878	0.684836	-90.962348	27.691225	177.126452
00709		-0.153678	-0.185166	-0.687862	0.684794	-90.963074	27.711460	177.134191
00710		-0.153869	-0.185255	-0.687806	0.684783	-90.957618	27.735037	177.143709
00711		-0.153990	-0.185386	-0.687709	0.684818	-90.946754	27.756283	177.145299
00712		-0.154033	-0.185559	-0.687621	0.684850	-90.939644	27.774517	177.135931
00713		-0.154029	-0.185753	-0.687545	0.684875	-90.935505	27.790429	177.120149
00714		-0.154012	-0.185904	-0.687462	0.684921	-90.928115	27.801786	177.107859
00715		-0.154040	-0.185962	-0.687368	0.684993	-90.914219	27.809264	177.108634
00716		-0.154172	-0.185924	-0.687289	0.685053	-90.898431	27.817539	177.126634
00717		-0.154320	-0.185837	-0.687294	0.685038	-90.895204	27.822743	177.147039
00718		-0.154484	-0.185788	-0.687364	0.684944	-90.905355	27.832076	177.162188
00719		-0.154624	-0.185774	-0.687457	0.684822	-90.921415	27.842305	177.170929
00720		-0.154756	-0.185798	-0.687558	0.684685	-90.940681	27.854928	177.174941
00721		-0.154877	-0.185822	-0.687620	0.684589	-90.952961	27.866731	177.179842
00722		-0.154983	-0.185833	-0.687634	0.684548	-90.956002	27.876467	177.186869
00723		-0.155060	-0.185826	-0.687587	0.684580	-90.947328	27.882488	177.195902
00724		-0.155105	-0.185816	-0.687508	0.684651	-90.932847	27.885703	177.204076
00725		-0.155126	-0.185829	-0.687407	0.684744	-90.915535	27.888972	177.209038
00726		-0.155089	-0.185888	-0.687330	0.684814	-90.904596	27.891103	177.203719
00727		-0.154997	-0.185992	-0.687255	0.684882	-90.896290	27.892269	177.189398
00728		-0.154875	-0.186158	-0.687223	0.684897	-90.898549	27.895827	177.164698
00729		-0.154779	-0.186306	-0.687226	0.684875	-90.906245	27.899945	177.142435
00730		-0.154753	-0.186390	-0.687243	0.684841	-90.913535	27.904625	177.131235
00731		-0.154779	-0.186389	-0.687281	0.684798	-90.920113	27.906483	177.131870
00732		-0.154864	-0.186364	-0.687349	0.684717	-90.931114	27.911317	177.138235
00733		-0.154926	-0.186331	-0.687489	0.684571	-90.954613	27.913202	177.140271
00734		-0.154920	-0.186333	-0.687685	0.684375	-90.989581	27.912005	177.130961
00735		-0.154864	-0.186357	-0.687794	0.684271	-91.010240	27.908905	177.119221
00736		-0.154789	-0.186390	-0.687788	0.684285	-91.010697	27.905374	177.110111
00737		-0.154760	-0.186400	-0.687657	0.684421	-90.987792	27.904291	177.112634
00738		-0.154734	-0.186428	-0.687485	0.684592	-90.958457	27.905052	177.115355
00739		-0.154652	-0.186539	-0.687351	0.684715	-90.939963	27.907923	177.103796
00740		-0.154493	-0.186754	-0.687310	0.684733	-90.943076	27.912492	177.071668
00741		-0.154317	-0.187050	-0.687336	0.684666	-90.962220	27.921962	177.027363
00742		-0.154127	-0.187412	-0.687415	0.684531	-90.993888	27.935464	176.973249
00743		-0.153997	-0.187694	-0.687584	0.684313	-91.037919	27.947015	176.927709
00744		-0.153907	-0.187889	-0.687805	0.684057	-91.086951	27.954472	176.891439
00745		-0.153795	-0.187942	-0.688012	0.683860	-91.126409	27.948512	176.868020
00746		-0.153661	-0.187934	-0.688154	0.683749	-91.151282	27.935925	176.851539
00747		-0.153607	-0.187831	-0.688151	0.683793	-91.145533	27.922998	176.857223
00748		-0.153514	-0.187776	-0.688003	0.683977	-91.116379	27.911379	176.861563
00749		-0.153374	-0.187810	-0.687750	0.684254	-91.072781	27.903582	176.857933
00750		-0.153091	-0.188082	-0.687505	0.684489	-91.042357	27.903398	176.819162
00751		-0.152751	-0.188503	-0.687346	0.684609	-91.034578	27.910271	176.757428
00752		-0.152348	-0.189015	-0.687304	0.684599	-91.052329	27.918680	176.676394
00753		-0.151972	-0.189439	-0.687357	0.684513	-91.082510	27.921718	176.602058
00754		-0.151619	-0.189740	-0.687490	0.684374	-91.121048	27.916230	176.537912
00755		-0.151325	-0.189917	-0.687660	0.684219	-91.159905	27.905233	176.489100
00756		-0.151078	-0.189947	-0.687861	0.684063	-91.197126	27.885995	176.457077
00757		-0.150934	-0.189869	-0.688001	0.683977	-91.217876	27.866723	176.446745
00758		-0.150822	-0.189795	-0.688025	0.683997	-91.218411	27.851192	176.443786
00759		-0.150741	-0.189730	-0.687971	0.684088	-91.205405	27.839327	176.445837
00760		-0.150632	-0.189734	-0.687824	0.684258	-91.179386	27.831378	176.443017
00761		-0.150496	-0.189746	-0.687653	0.684457	-91.149275	27.821816	176.438310
00762		-0.150236	-0.189823	-0.687486	0.684660	-91.123275	27.807269	176.416769
00763		-0.149963	-0.189874	-0.687335	0.684857	-91.098686	27.789327	176.396173
00764		-0.149664	-0.189943	-0.687178	0.685061	-91.073985	27.770872	176.371871
00765		-0.149477	-0.189954	-0.687078	0.685199	-91.056571	27.756651	176.359857
00766		-0.149363	-0.189877	-0.687015	0.685309	-91.041319	27.741158	176.360929
00767		-0.149428	-0.189600	-0.687008	0.685379	-91.026311	27.723865	176.393417
00768		-0.149603	-0.189209	-0.687019	0.685437	-91.008979	27.706497	176.445264
00769		-0.149880	-0.188722	-0.687069	0.685460	-90.993917	27.689494	176.513012
00770		-0.150057	-0.188313	-0.687119	0.685485	-90.982592	27.670440	176.565076
00771		-0.150147	-0.187978	-0.687135	0.685541	-90.969016	27.650361	176.604180
00772		-0.150081	-0.187736	-0.687032	0.685725	-90.938685	27.625544	176.626667
00773		-0.150008	-0.187473	-0.686819	0.686026	-90.887855	27.598961	176.655470
00774		-0.149932	-0.187287	-0.686507	0.686406	-90.823291	27.578775	176.680804
00775		-0.149890	-0.187119	-0.686223	0.686744	-90.764679	27.562864	176.705955
00776		-0.149812	-0.187051	-0.685969	0.687034	-90.716204	27.552000	176.717190
00777		-0.149715	-0.187038	-0.685762	0.687265	-90.678866	27.543798	176.719468
00778		-0.149572	-0.187131	-0.685555	0.687477	-90.646664	27.540558	176.707633
00779		-0.149477	-0.187263	-0.685370	0.687646	-90.620310	27.544428	176.695152
00780		-0.149368	-0.187448	-0.685192	0.687797	-90.597696	27.551409	176.676045
00781		-0.149274	-0.187596	-0.685118	0.687850	-90.591920	27.556073	176.657229
00782		-0.149185	-0.187706	-0.685093	0.687865	-90.592700	27.557819	176.640351
00783		-0.149193	-0.187694	-0.685105	0.687855	-90.594254	27.557411	176.641683
00784		-0.149201	-0.187687	-0.685123	0.687836	-90.597187	27.557524	176.642207
00785		-0.149229	-0.187700	-0.685154	0.687797	-90.603202	27.560684	176.641995
00786		-0.149178	-0.187840	-0.685144	0.687779	-90.608416	27.568055	176.624662
00787		-0.149096	-0.188078	-0.685085	0.687791	-90.609481	27.581092	176.597511
00788		-0.148975	-0.188410	-0.684934	0.687876	-90.599010	27.599044	176.562072
00789		-0.148882	-0.188734	-0.684742	0.687999	-90.580915	27.618885	176.531437
00790		-0.148782	-0.189044	-0.684576	0.688100	-90.566890	27.636978	176.500438
00791		-0.148740	-0.189264	-0.684479	0.688145	-90.560470	27.652095	176.479929
00792		-0.148717	-0.189388	-0.684466	0.688130	-90.564186	27.660405	176.466730
00793		-0.148809	-0.189384	-0.684523	0.688054	-90.574212	27.667500	176.472124
00794		-0.148908	-0.189371	-0.684630	0.687930	-90.592501	27.674033	176.476904
00795		-0.149014	-0.189297	-0.684758	0.687799	-90.611722	27.676165	176.487174
00796		-0.149043	-0.189300	-0.684863	0.687687	-90.630485	27.678221	176.484666
00797		-0.149061	-0.189306	-0.684900	0.687645	-90.637310	27.680129	176.483960
00798		-0.149007	-0.189369	-0.684905	0.687634	-90.641295	27.680778	176.473236
00799		-0.149007	-0.189412	-0.684850	0.687677	-90.633701	27.684588	176.471470
00800		-0.149007	-0.189505	-0.684790	0.687711	-90.627675	27.692492	176.465029
00801		-0.149030	-0.189605	-0.684790	0.687680	-90.632496	27.702687	176.457307
00802		-0.148959	-0.189829	-0.684840	0.687583	-90.652547	27.714955	176.427555
00803		-0.148830	-0.190105	-0.684938	0.687438	-90.683461	27.726278	176.385962
00804		-0.148656	-0.190416	-0.685016	0.687311	-90.712806	27.736959	176.338099
00805		-0.148564	-0.190595	-0.685091	0.687206	-90.734946	27.743618	176.309871
00806		-0.148534	-0.190667	-0.685134	0.687150	-90.746179	27.746796	176.298605
00807		-0.148605	-0.190622	-0.685174	0.687107	-90.751091	27.748794	176.306909
00808		-0.148661	-0.190590	-0.685240	0.687039	-90.761118	27.750483	176.311882
00809		-0.148715	-0.190554	-0.685356	0.686920	-90.780099	27.751427	176.314574
00810		-0.148711	-0.190591	-0.685472	0.686795	-90.802483	27.753497	176.305645
00811		-0.148731	-0.190610	-0.685555	0.686703	-90.818113	27.756211	176.301817
00812		-0.148707	-0.190655	-0.685578	0.686673	-90.824508	27.757834	176.294396
00813		-0.148760	-0.190668	-0.685554	0.686682	-90.820809	27.763477	176.298670
00814		-0.148726	-0.190729	-0.685528	0.686698	-90.819220	27.765826	176.291062
00815		-0.148658	-0.190768	-0.685516	0.686714	-90.819077	27.763389	176.282226
00816		-0.148534	-0.190883	-0.685489	0.686736	-90.819911	27.762541	176.262013
00817		-0.148415	-0.191037	-0.685466	0.686742	-90.823559	27.765377	176.238273
00818		-0.148268	-0.191287	-0.685460	0.686710	-90.834915	27.773678	176.202164
00819		-0.148129	-0.191550	-0.685529	0.686598	-90.860258	27.783270	176.162173
00820		-0.147989	-0.191795	-0.685632	0.686457	-90.890704	27.791136	176.122337
00821		-0.147917	-0.191944	-0.685734	0.686328	-90.916367	27.796786	176.097490
00822		-0.147849	-0.192031	-0.685797	0.686255	-90.931982	27.797917	176.080639
00823		-0.147890	-0.192010	-0.685771	0.686279	-90.926297	27.799697	176.087238
00824		-0.147898	-0.192001	-0.685687	0.686364	-90.910863	27.800138	176.092450
00825		-0.147884	-0.191994	-0.685594	0.686462	-90.893972	27.798846	176.096055
00826		-0.147766	-0.192117	-0.685524	0.686522	-90.887711	27.799545	176.077407
00827		-0.147577	-0.192364	-0.685456	0.686562	-90.887924	27.804337	176.040925
00828		-0.147315	-0.192715	-0.685356	0.686620	-90.887730	27.811886	175.989598
00829		-0.147034	-0.193082	-0.685267	0.686666	-90.890344	27.819060	175.934741
00830		-0.146778	-0.193434	-0.685163	0.686725	-90.889581	27.827149	175.883995
00831		-0.146601	-0.193710	-0.685143	0.686705	-90.899912	27.835071	175.843454
00832		-0.146411	-0.193924	-0.685198	0.686631	-90.920368	27.836426	175.804700
00833		-0.146245	-0.193986	-0.685310	0.686537	-90.943312	27.826958	175.780052
00834		-0.146084	-0.194027	-0.685404	0.686465	-90.962101	27.816347	175.758699
00835		-0.145987	-0.194045	-0.685458	0.686427	-90.972445	27.809389	175.746715
00836		-0.145842	-0.194162	-0.685450	0.686432	-90.976981	27.806920	175.723732
00837		-0.145696	-0.194351	-0.685369	0.686491	-90.972078	27.810631	175.696905
00838		-0.145461	-0.194618	-0.685260	0.686574	-90.966246	27.813615	175.656299
00839		-0.145310	-0.194832	-0.685139	0.686666	-90.955540	27.819270	175.628437
00840		-0.145138	-0.195012	-0.685052	0.686739	-90.949149	27.820137	175.600581
00841		-0.145001	-0.195095	-0.685022	0.686773	-90.948154	27.815823	175.582509
00842		-0.144867	-0.195157	-0.685007	0.686799	-90.948488	27.809757	175.566217
00843		-0.144788	-0.195172	-0.685018	0.686801	-90.951113	27.804287	175.557751
00844		-0.144696	-0.195239	-0.685036	0.686783	-90.957679	27.801985	175.542874
00845		-0.144626	-0.195333	-0.685110	0.686697	-90.975669	27.803362	175.524697
00846		-0.144546	-0.195425	-0.685187	0.686611	-90.993963	27.803659	175.505814
00847		-0.144469	-0.195473	-0.685293	0.686508	-91.015148	27.800558	175.490171
00848		-0.144410	-0.195500	-0.685373	0.686432	-91.030791	27.797287	175.479155
00849		-0.144439	-0.195399	-0.685434	0.686394	-91.036387	27.790982	175.488778
00850		-0.144459	-0.195292	-0.685444	0.686410	-91.032649	27.783951	175.500447
00851		-0.144481	-0.195183	-0.685392	0.686489	-91.017839	27.777153	175.515109
00852		-0.144479	-0.195178	-0.685289	0.686593	-90.999357	27.777310	175.520000
00853		-0.144469	-0.195195	-0.685154	0.686726	-90.976127	27.778644	175.523481
00854		-0.144403	-0.195300	-0.685097	0.686766	-90.971553	27.782149	175.510235
00855		-0.144380	-0.195367	-0.685152	0.686697	-90.984611	27.785310	175.499415
00856		-0.144353	-0.195435	-0.685331	0.686505	-91.019892	27.787483	175.482725
00857		-0.144402	-0.195382	-0.685600	0.686241	-91.064888	27.785492	175.480103
00858		-0.144436	-0.195284	-0.685876	0.685986	-91.108896	27.778526	175.480432
00859		-0.144477	-0.195104	-0.686124	0.685780	-91.143895	27.765576	175.490426
00860		-0.144417	-0.194980	-0.686277	0.685675	-91.164555	27.749508	175.490986
00861		-0.144280	-0.194946	-0.686363	0.685628	-91.177896	27.734626	175.479418
00862		-0.144050	-0.194995	-0.686345	0.685681	-91.177006	27.719545	175.456570
00863		-0.143845	-0.195061	-0.686290	0.685759	-91.170574	27.708200	175.435734
00864		-0.143614	-0.195170	-0.686210	0.685857	-91.161624	27.698313	175.409812
00865		-0.143450	-0.195232	-0.686149	0.685935	-91.153854	27.690129	175.393023
00866		-0.143278	-0.195367	-0.686121	0.685960	-91.155818	27.686880	175.366921
00867		-0.143147	-0.195501	-0.686186	0.685885	-91.173963	27.686421	175.340350
00868		-0.142975	-0.195619	-0.686313	0.685759	-91.202640	27.680935	175.309172
00869		-0.142906	-0.195603	-0.686483	0.685608	-91.231915	27.672634	175.297690
00870		-0.142946	-0.195473	-0.686603	0.685517	-91.246433	27.664604	175.308489
00871		-0.143019	-0.195207	-0.686716	0.685464	-91.252921	27.648185	175.335526
00872		-0.143052	-0.194979	-0.686764	0.685474	-91.249723	27.632056	175.358385
00873		-0.143010	-0.194843	-0.686741	0.685544	-91.238649	27.617640	175.369369
00874		-0.142829	-0.194913	-0.686606	0.685698	-91.218049	27.609128	175.353609
00875		-0.142613	-0.195062	-0.686353	0.685953	-91.180683	27.604943	175.332442
00876		-0.142408	-0.195284	-0.686008	0.686278	-91.130608	27.608297	175.309073
00877		-0.142243	-0.195430	-0.685714	0.686564	-91.085944	27.608430	175.294022
00878		-0.142100	-0.195620	-0.685477	0.686777	-91.053470	27.613582	175.274123
00879		-0.141977	-0.195678	-0.685409	0.686853	-91.044326	27.608583	175.261393
00880		-0.141896	-0.195688	-0.685435	0.686841	-91.049366	27.602453	175.252614
00881		-0.141922	-0.195571	-0.685556	0.686748	-91.064891	27.594209	175.260896
00882		-0.142020	-0.195418	-0.685696	0.686632	-91.081801	27.588988	175.277858
00883		-0.142165	-0.195257	-0.685822	0.686522	-91.096046	27.587067	175.299905
00884		-0.142199	-0.195250	-0.685922	0.686417	-91.113476	27.588698	175.299039
00885		-0.142133	-0.195372	-0.685982	0.686336	-91.130275	27.592687	175.279178
00886		-0.141926	-0.195664	-0.685947	0.686330	-91.138961	27.599396	175.235145
00887		-0.141720	-0.195966	-0.685849	0.686385	-91.136968	27.607529	175.193080
00888		-0.141551	-0.196230	-0.685678	0.686515	-91.120119	27.616207	175.160894
00889		-0.141422	-0.196417	-0.685537	0.686629	-91.104696	27.621727	175.138166
00890		-0.141259	-0.196637	-0.685428	0.686708	-91.096544	27.626818	175.108062
00891		-0.141114	-0.196839	-0.685376	0.686733	-91.097577	27.631544	175.078776
00892		-0.141005	-0.197055	-0.685373	0.686695	-91.108321	27.640075	175.048746
00893		-0.140990	-0.197188	-0.685423	0.686610	-91.123979	27.649321	175.032434
00894		-0.140976	-0.197315	-0.685571	0.686429	-91.156840	27.657372	175.012366
00895		-0.140892	-0.197445	-0.685804	0.686176	-91.204903	27.659330	174.982560
00896		-0.140743	-0.197630	-0.686013	0.685944	-91.251418	27.660421	174.943206
00897		-0.140625	-0.197732	-0.686102	0.685851	-91.272309	27.658138	174.919683
00898		-0.140518	-0.197792	-0.686047	0.685910	-91.265624	27.654557	174.907499
00899		-0.140464	-0.197788	-0.685900	0.686069	-91.239360	27.650751	174.909818
00900		-0.140409	-0.197824	-0.685747	0.686223	-91.213919	27.650257	174.908542
00901		-0.140352	-0.197870	-0.685674	0.686294	-91.203433	27.649743	174.902508
00902		-0.140278	-0.197989	-0.685662	0.686287	-91.207338	27.653336	174.885391
00903		-0.140206	-0.198125	-0.685716	0.686208	-91.224053	27.658020	174.863760
00904		-0.140118	-0.198297	-0.685780	0.686113	-91.244252	27.664198	174.836947
00905		-0.140111	-0.198360	-0.685845	0.686032	-91.258987	27.668195	174.827389
00906		-0.140180	-0.198309	-0.685903	0.685974	-91.266715	27.669401	174.835488
00907		-0.140330	-0.198119	-0.685982	0.685919	-91.271023	27.665826	174.862899
00908		-0.140485	-0.197925	-0.686039	0.685886	-91.271129	27.662660	174.892126
00909		-0.140582	-0.197710	-0.686098	0.685870	-91.270448	27.652832	174.918545
00910		-0.140603	-0.197620	-0.686090	0.685899	-91.264361	27.647266	174.929457
00911		-0.140607	-0.197625	-0.686006	0.685981	-91.249785	27.648618	174.932901
00912		-0.140517	-0.197749	-0.685890	0.686079	-91.235604	27.652087	174.918477
00913		-0.140433	-0.197899	-0.685764	0.686179	-91.220995	27.658231	174.902355
00914		-0.140355	-0.198050	-0.685649	0.686267	-91.208260	27.664845	174.886319
00915		-0.140373	-0.198100	-0.685591	0.686307	-91.200593	27.670835	174.885380
00916		-0.140365	-0.198100	-0.685601	0.686298	-91.202445	27.670152	174.884240
00917		-0.140390	-0.198093	-0.685664	0.686232	-91.213263	27.671185	174.884225
00918		-0.140384	-0.198101	-0.685753	0.686142	-91.229440	27.670624	174.879120
00919		-0.140383	-0.198093	-0.685871	0.686027	-91.249908	27.669047	174.874676
00920		-0.140385	-0.198112	-0.685921	0.685971	-91.259772	27.670345	174.870738
00921		-0.140440	-0.198074	-0.685897	0.685994	-91.253677	27.672075	174.879971
00922		-0.140461	-0.198064	-0.685798	0.686092	-91.235674	27.673741	174.886949
00923		-0.140471	-0.198052	-0.685713	0.686178	-91.219922	27.674162	174.892690
00924		-0.140454	-0.198087	-0.685652	0.686233	-91.210797	27.676128	174.890573
00925		-0.140464	-0.198083	-0.685644	0.686240	-91.209298	27.676693	174.892061
00926		-0.140484	-0.198099	-0.685652	0.686223	-91.211526	27.679572	174.891882
00927		-0.140562	-0.198052	-0.685706	0.686167	-91.218741	27.681887	174.900452
00928		-0.140643	-0.198038	-0.685782	0.686079	-91.231463	27.686936	174.905171
00929		-0.140724	-0.197953	-0.685845	0.686023	-91.238348	27.686314	174.917347
00930		-0.140744	-0.197835	-0.685841	0.686057	-91.231571	27.678375	174.930628
00931		-0.140770	-0.197636	-0.685778	0.686173	-91.209966	27.664837	174.955033
00932		-0.140793	-0.197470	-0.685646	0.686347	-91.178019	27.654205	174.978908
00933		-0.140852	-0.197265	-0.685513	0.686527	-91.143813	27.643452	175.009653
00934		-0.140902	-0.197130	-0.685371	0.686697	-91.111656	27.637605	175.033157
00935		-0.140988	-0.197004	-0.685265	0.686821	-91.086411	27.635320	175.057141
00936		-0.141096	-0.196946	-0.685216	0.686865	-91.074815	27.639837	175.073777
00937		-0.141215	-0.196892	-0.685198	0.686874	-91.068911	27.645532	175.089615
00938		-0.141314	-0.196841	-0.685191	0.686875	-91.065108	27.649748	175.102938
00939		-0.141413	-0.196695	-0.685194	0.686894	-91.058173	27.646052	175.125157
00940		-0.141485	-0.196543	-0.685166	0.686950	-91.045380	27.639817	175.147235
00941		-0.141568	-0.196397	-0.685130	0.687011	-91.031562	27.635082	175.169806
00942		-0.141634	-0.196296	-0.685093	0.687062	-91.019940	27.632618	175.186608
00943		-0.141719	-0.196166	-0.685034	0.687141	-91.002836	27.629482	175.208878
00944		-0.141805	-0.196089	-0.684956	0.687223	-90.985127	27.630950	175.226780
00945		-0.141902	-0.196042	-0.684854	0.687318	-90.964650	27.635812	175.243805
00946		-0.141969	-0.196081	-0.684746	0.687401	-90.947549	27.645419	175.250128
00947		-0.142022	-0.196149	-0.684673	0.687443	-90.938219	27.655941	175.251015
00948		-0.142043	-0.196209	-0.684636	0.687459	-90.934758	27.662803	175.248442
00949		-0.142155	-0.196164	-0.684676	0.687408	-90.939659	27.668142	175.260219
00950		-0.142327	-0.195987	-0.684715	0.687384	-90.937570	27.667836	175.289959
00951		-0.142589	-0.195690	-0.684749	0.687381	-90.928488	27.665020	175.338930
00952		-0.142797	-0.195391	-0.684782	0.687390	-90.919081	27.657720	175.383727
00953		-0.142938	-0.195186	-0.684788	0.687413	-90.909818	27.652665	175.414975
00954		-0.142970	-0.195157	-0.684760	0.687442	-90.903421	27.653274	175.421649
00955		-0.142933	-0.195236	-0.684725	0.687463	-90.901155	27.656823	175.412489
00956		-0.142849	-0.195418	-0.684685	0.687468	-90.903315	27.665024	175.389556
00957		-0.142844	-0.195544	-0.684623	0.687495	-90.898782	27.675213	175.379555
00958		-0.142847	-0.195590	-0.684577	0.687527	-90.893027	27.679579	175.377286
00959		-0.142936	-0.195497	-0.684603	0.687509	-90.892994	27.679206	175.392486
00960		-0.143029	-0.195309	-0.684722	0.687425	-90.904385	27.670850	175.413352
00961		-0.143136	-0.195056	-0.684905	0.687292	-90.924066	27.657832	175.438815
00962		-0.143184	-0.194863	-0.685098	0.687145	-90.948253	27.644746	175.453236
00963		-0.143211	-0.194760	-0.685271	0.686995	-90.973833	27.637462	175.457929
00964		-0.143181	-0.194752	-0.685414	0.686862	-90.998606	27.633315	175.449980
00965		-0.143172	-0.194752	-0.685530	0.686747	-91.019346	27.631882	175.444187
00966		-0.143125	-0.194790	-0.685658	0.686619	-91.043852	27.630145	175.431115
00967		-0.143065	-0.194771	-0.685767	0.686528	-91.062075	27.622833	175.423297
00968		-0.143042	-0.194691	-0.685836	0.686486	-91.070373	27.614013	175.426205
00969		-0.143110	-0.194499	-0.685887	0.686475	-91.069594	27.603623	175.448228
00970		-0.143221	-0.194302	-0.685908	0.686487	-91.063341	27.596625	175.475639
00971		-0.143347	-0.194050	-0.685942	0.686499	-91.056529	27.586368	175.509061
00972		-0.143420	-0.193836	-0.685954	0.686531	-91.047872	27.574928	175.535418
00973		-0.143493	-0.193621	-0.685953	0.686578	-91.036824	27.563521	175.562387
00974		-0.143509	-0.193482	-0.685954	0.686612	-91.030041	27.553449	175.577121
00975		-0.143533	-0.193332	-0.685942	0.686662	-91.020303	27.543228	175.594231
00976		-0.143518	-0.193201	-0.685913	0.686731	-91.008384	27.531503	175.607168
00977		-0.143508	-0.193037	-0.685868	0.686824	-90.992133	27.517506	175.624181
00978		-0.143488	-0.192896	-0.685778	0.686958	-90.969058	27.504928	175.640120
00979		-0.143513	-0.192751	-0.685681	0.687090	-90.944501	27.495801	175.660573
00980		-0.143467	-0.192679	-0.685611	0.687190	-90.928499	27.486464	175.666795
00981		-0.143438	-0.192631	-0.685579	0.687241	-90.920398	27.480361	175.670436
00982		-0.143356	-0.192663	-0.685568	0.687261	-90.919899	27.476117	175.661174
00983		-0.143340	-0.192655	-0.685549	0.687284	-90.916272	27.474276	175.661446
00984		-0.143313	-0.192615	-0.685517	0.687334	-90.908483	27.469014	175.664493
00985		-0.143336	-0.192517	-0.685451	0.687422	-90.891851	27.463366	175.678750
00986		-0.143354	-0.192428	-0.685359	0.687535	-90.871151	27.458082	175.692830
00987		-0.143348	-0.192362	-0.685267	0.687646	-90.851479	27.452791	175.702780
00988		-0.143268	-0.192434	-0.685162	0.687748	-90.836492	27.452673	175.693773
00989		-0.143172	-0.192560	-0.685038	0.687856	-90.820835	27.455717	175.679008
00990		-0.143077	-0.192719	-0.684903	0.687965	-90.804927	27.461723	175.661536
00991		-0.143066	-0.192737	-0.684789	0.688076	-90.785605	27.462986	175.663856
00992		-0.143144	-0.192662	-0.684692	0.688177	-90.764787	27.463948	175.681659
00993		-0.143290	-0.192488	-0.684651	0.688236	-90.748941	27.462057	175.712290
00994		-0.143389	-0.192333	-0.684671	0.688239	-90.744725	27.457532	175.734557
00995		-0.143449	-0.192209	-0.684700	0.688232	-90.743672	27.452117	175.750300
00996		-0.143521	-0.192139	-0.684685	0.688252	-90.737405	27.452529	175.763698
00997		-0.143601	-0.192037	-0.684650	0.688298	-90.726314	27.451065	175.781658
00998		-0.143655	-0.191936	-0.684549	0.688416	-90.703366	27.447906	175.800196
00999		-0.143724	-0.191802	-0.684422	0.688565	-90.674163	27.443459	175.824376
01000		-0.143751	-0.191752	-0.684254	0.688740	-90.642084	27.442570	175.838696
01001		-0.143831	-0.191692	-0.684103	0.688890	-90.612492	27.445172	175.857506
01002		-0.143923	-0.191633	-0.683998	0.688992	-90.590914	27.448567	175.875345
01003		-0.144101	-0.191456	-0.683953	0.689049	-90.574210	27.449176	175.909127
01004		-0.144323	-0.191241	-0.683962	0.689053	-90.565235	27.449853	175.947718
01005		-0.144582	-0.190927	-0.684054	0.688994	-90.566008	27.445058	175.995395
01006		-0.144911	-0.190615	-0.684161	0.688905	-90.569503	27.446213	176.048023
01007		-0.145266	-0.190281	-0.684330	0.688755	-90.582904	27.447368	176.102204
01008		-0.145518	-0.190072	-0.684494	0.688597	-90.601626	27.450267	176.136114
01009		-0.145700	-0.189930	-0.684588	0.688504	-90.611387	27.453209	176.160649
01010		-0.145760	-0.189933	-0.684554	0.688523	-90.605598	27.458664	176.166815
01011		-0.145855	-0.189935	-0.684429	0.688628	-90.583546	27.467416	176.179898
01012		-0.145933	-0.189944	-0.684268	0.688769	-90.555497	27.475484	176.192315
01013		-0.146080	-0.189898	-0.684113	0.688903	-90.526062	27.484844	176.215559
01014		-0.146200	-0.189852	-0.684039	0.688965	-90.510592	27.491399	176.233146
01015		-0.146355	-0.189760	-0.684090	0.688906	-90.515231	27.496475	176.252579
01016		-0.146529	-0.189683	-0.684232	0.688750	-90.536595	27.503818	176.268132
01017		-0.146730	-0.189584	-0.684464	0.688504	-90.572764	27.511183	176.284274
01018		-0.146922	-0.189522	-0.684714	0.688231	-90.614038	27.520708	176.295187
01019		-0.147104	-0.189463	-0.684920	0.688004	-90.647581	27.529907	176.306993
01020		-0.147256	-0.189485	-0.685046	0.687839	-90.671107	27.543642	176.311839
01021		-0.147404	-0.189528	-0.685038	0.687804	-90.671893	27.559605	176.320240
01022		-0.147523	-0.189554	-0.684907	0.687902	-90.650028	27.572301	176.333214
01023		-0.147614	-0.189581	-0.684704	0.688077	-90.615463	27.583215	176.346908
01024		-0.147667	-0.189646	-0.684491	0.688259	-90.581049	27.594067	176.354148
01025		-0.147702	-0.189758	-0.684323	0.688388	-90.556899	27.607057	176.353532
01026		-0.147682	-0.189942	-0.684240	0.688424	-90.551340	27.621026	176.337661
01027		-0.147667	-0.190136	-0.684219	0.688394	-90.557179	27.635829	176.318648
01028		-0.147660	-0.190316	-0.684240	0.688325	-90.569849	27.649922	176.299663
01029		-0.147719	-0.190446	-0.684272	0.688245	-90.581914	27.665401	176.290594
01030		-0.147843	-0.190464	-0.684299	0.688186	-90.587734	27.677053	176.297914
01031		-0.148035	-0.190322	-0.684315	0.688169	-90.583500	27.681183	176.326727
01032		-0.148203	-0.190086	-0.684287	0.688226	-90.566904	27.676010	176.364564
01033		-0.148340	-0.189836	-0.684185	0.688366	-90.536615	27.667335	176.404542
01034		-0.148362	-0.189739	-0.684028	0.688544	-90.504015	27.662044	176.422501
01035		-0.148293	-0.189814	-0.683828	0.688738	-90.472215	27.663492	176.418336
01036		-0.148102	-0.190045	-0.683624	0.688918	-90.447453	27.667690	176.389123
01037		-0.147909	-0.190320	-0.683409	0.689096	-90.423067	27.675401	176.356039
01038		-0.147721	-0.190602	-0.683256	0.689210	-90.409984	27.683854	176.319836
01039		-0.147626	-0.190746	-0.683154	0.689292	-90.398979	27.688327	176.302621
01040		-0.147598	-0.190761	-0.683123	0.689324	-90.394332	27.687410	176.300146
01041		-0.147653	-0.190662	-0.683172	0.689291	-90.398081	27.683534	176.312107
01042		-0.147730	-0.190468	-0.683255	0.689246	-90.403122	27.673552	176.333599
01043		-0.147850	-0.190174	-0.683345	0.689212	-90.404580	27.658876	176.368020
01044		-0.147990	-0.189935	-0.683382	0.689212	-90.399302	27.650552	176.400979
01045		-0.148057	-0.189802	-0.683374	0.689242	-90.391255	27.645308	176.419774
01046		-0.148002	-0.189850	-0.683261	0.689352	-90.373734	27.645209	176.415479
01047		-0.147866	-0.190053	-0.683118	0.689468	-90.358391	27.651306	176.390881
01048		-0.147608	-0.190408	-0.682988	0.689554	-90.352904	27.659885	176.340910
01049		-0.147398	-0.190764	-0.682900	0.689587	-90.354937	27.672244	176.293148
01050		-0.147290	-0.191001	-0.682870	0.689574	-90.361499	27.682972	176.262488
01051		-0.147349	-0.190998	-0.682866	0.689567	-90.360559	27.687614	176.267956
01052		-0.147469	-0.190821	-0.682909	0.689547	-90.359411	27.682790	176.293080
01053		-0.147639	-0.190586	-0.682983	0.689502	-90.360907	27.677186	176.326560
01054		-0.147719	-0.190405	-0.683060	0.689460	-90.365466	27.668479	176.347333
01055		-0.147733	-0.190310	-0.683115	0.689428	-90.370585	27.661468	176.355230
01056		-0.147648	-0.190374	-0.683128	0.689415	-90.376027	27.659681	176.341415
01057		-0.147537	-0.190529	-0.683110	0.689415	-90.380411	27.663272	176.318088
01058		-0.147378	-0.190774	-0.683059	0.689431	-90.383512	27.670594	176.283581
01059		-0.147223	-0.190967	-0.683010	0.689460	-90.384386	27.673830	176.254196
01060		-0.147093	-0.191100	-0.682954	0.689506	-90.381162	27.674288	176.233054
01061		-0.147062	-0.191099	-0.682893	0.689573	-90.370345	27.671996	176.233255
01062		-0.147093	-0.191003	-0.682866	0.689620	-90.360751	27.666803	176.246337
01063		-0.147218	-0.190791	-0.682873	0.689646	-90.351388	27.659604	176.276796
01064		-0.147312	-0.190614	-0.682913	0.689634	-90.349766	27.652644	176.299874
01065		-0.147311	-0.190538	-0.682973	0.689596	-90.356581	27.645997	176.304567
01066		-0.147204	-0.190606	-0.683018	0.689555	-90.367988	27.642520	176.287157
01067		-0.147077	-0.190705	-0.683024	0.689549	-90.373921	27.639996	176.266915
01068		-0.146938	-0.190802	-0.682957	0.689618	-90.366856	27.636871	176.248974
01069		-0.146847	-0.190842	-0.682871	0.689712	-90.353568	27.633053	176.241282
01070		-0.146717	-0.190899	-0.682760	0.689833	-90.336824	27.627573	176.229907
01071		-0.146649	-0.190929	-0.682670	0.689929	-90.322257	27.624853	176.225395
01072		-0.146569	-0.190969	-0.682628	0.689976	-90.316938	27.621781	176.216640
01073		-0.146484	-0.190939	-0.682632	0.689999	-90.316118	27.612146	176.212378
01074		-0.146376	-0.190905	-0.682631	0.690032	-90.314123	27.600463	176.206793
01075		-0.146272	-0.190853	-0.682622	0.690078	-90.309986	27.587502	176.203607
01076		-0.146174	-0.190834	-0.682533	0.690191	-90.293424	27.578369	176.201150
01077		-0.146077	-0.190839	-0.682480	0.690263	-90.284269	27.570985	176.195062
01078		-0.145962	-0.190876	-0.682403	0.690353	-90.272460	27.564930	176.185314
01079		-0.145836	-0.190912	-0.682384	0.690388	-90.270936	27.557570	176.172174
01080		-0.145668	-0.190995	-0.682357	0.690428	-90.270226	27.550558	176.151487
01081		-0.145535	-0.191043	-0.682306	0.690493	-90.263441	27.543788	176.138162
01082		-0.145415	-0.191088	-0.682212	0.690599	-90.249181	27.538037	176.127887
01083		-0.145338	-0.191112	-0.682127	0.690692	-90.235375	27.534089	176.122905
01084		-0.145251	-0.191138	-0.682076	0.690754	-90.227549	27.529381	176.115413
01085		-0.145181	-0.191166	-0.682099	0.690738	-90.233074	27.525776	176.105919
01086		-0.145090	-0.191192	-0.682177	0.690673	-90.248107	27.519852	176.092541
01087		-0.145022	-0.191111	-0.682243	0.690645	-90.255627	27.507225	176.091910
01088		-0.144969	-0.190970	-0.682265	0.690673	-90.252573	27.490974	176.100203
01089		-0.144933	-0.190801	-0.682208	0.690784	-90.234086	27.474508	176.115996
01090		-0.144863	-0.190703	-0.682078	0.690953	-90.206403	27.461309	176.125233
01091		-0.144749	-0.190691	-0.681948	0.691109	-90.182922	27.451639	176.122534
01092		-0.144579	-0.190864	-0.681830	0.691213	-90.170600	27.452387	176.096972
01093		-0.144419	-0.191082	-0.681740	0.691275	-90.165515	27.457600	176.066603
01094		-0.144297	-0.191344	-0.681712	0.691256	-90.173483	27.469300	176.032426
01095		-0.144292	-0.191438	-0.681793	0.691151	-90.192412	27.476195	176.019547
01096		-0.144353	-0.191362	-0.681897	0.691057	-90.206978	27.474397	176.027431
01097		-0.144437	-0.191105	-0.681993	0.691016	-90.211175	27.459624	176.055002
01098		-0.144457	-0.190862	-0.682009	0.691062	-90.202108	27.441198	176.079357
01099		-0.144416	-0.190714	-0.681960	0.691161	-90.186012	27.425894	176.092351
01100		-0.144317	-0.190739	-0.681874	0.691259	-90.172218	27.420157	176.085357
01101		-0.144139	-0.190952	-0.681809	0.691302	-90.171177	27.423272	176.053029
01102		-0.143893	-0.191339	-0.681733	0.691321	-90.176941	27.435255	175.998655
01103		-0.143697	-0.191677	-0.681684	0.691316	-90.185019	27.447196	175.952050
01104		-0.143585	-0.191943	-0.681688	0.691262	-90.198937	27.459840	175.916935
01105		-0.143607	-0.191983	-0.681784	0.691152	-90.217805	27.464398	175.910745
01106		-0.143685	-0.191869	-0.681914	0.691039	-90.235036	27.460629	175.922578
01107		-0.143808	-0.191601	-0.682045	0.690958	-90.244896	27.448016	175.952971
01108		-0.143892	-0.191333	-0.682093	0.690968	-90.239957	27.432627	175.983744
01109		-0.143922	-0.191096	-0.682094	0.691025	-90.228547	27.415569	176.008986
01110		-0.143888	-0.191028	-0.681997	0.691147	-90.208052	27.407740	176.016924
01111		-0.143786	-0.191100	-0.681847	0.691297	-90.185099	27.406039	176.007924
01112		-0.143615	-0.191315	-0.681694	0.691424	-90.168818	27.410520	175.979663
01113		-0.143453	-0.191517	-0.681566	0.691527	-90.156316	27.414518	175.952347
01114		-0.143279	-0.191687	-0.681462	0.691619	-90.146384	27.414667	175.926074
01115		-0.143223	-0.191682	-0.681389	0.691704	-90.133338	27.410057	175.925075
01116		-0.143259	-0.191542	-0.681335	0.691789	-90.116876	27.401781	175.943841
01117		-0.143345	-0.191281	-0.681304	0.691874	-90.098479	27.387528	175.977384
01118		-0.143342	-0.191099	-0.681296	0.691932	-90.088238	27.372368	175.994891
01119		-0.143321	-0.190981	-0.681278	0.691987	-90.079127	27.361009	176.005295
01120		-0.143206	-0.191053	-0.681236	0.692032	-90.075263	27.357691	175.990704
01121		-0.143077	-0.191259	-0.681177	0.692060	-90.075068	27.364288	175.962783
01122		-0.142926	-0.191552	-0.681104	0.692081	-90.076840	27.376451	175.925197
01123		-0.142866	-0.191772	-0.681043	0.692094	-90.076904	27.389882	175.901659
01124		-0.142828	-0.191905	-0.680973	0.692133	-90.071276	27.398200	175.888746
01125		-0.142837	-0.191882	-0.680884	0.692225	-90.054406	27.397616	175.895460
01126		-0.142846	-0.191805	-0.680751	0.692375	-90.027345	27.392801	175.909276
01127		-0.142801	-0.191746	-0.680631	0.692519	-90.003308	27.384874	175.916398
01128		-0.142694	-0.191815	-0.680519	0.692632	-89.986928	27.382329	175.905712
01129		-0.142560	-0.191976	-0.680436	0.692696	-89.980451	27.385066	175.882590
01130		-0.142372	-0.192251	-0.680373	0.692721	-89.983023	27.392581	175.843296
01131		-0.142242	-0.192512	-0.680326	0.692721	-89.987751	27.403638	175.809357
01132		-0.142155	-0.192700	-0.680289	0.692723	-89.990494	27.412211	175.785729
01133		-0.142185	-0.192721	-0.680262	0.692738	-89.986797	27.416571	175.787326
01134		-0.142199	-0.192691	-0.680243	0.692762	-89.981940	27.415415	175.792218
01135		-0.142209	-0.192620	-0.680236	0.692786	-89.977234	27.410372	175.800149
01136		-0.142130	-0.192640	-0.680235	0.692798	-89.978022	27.405491	175.791748
01137		-0.142019	-0.192730	-0.680222	0.692808	-89.980284	27.403784	175.774454
01138		-0.141856	-0.192953	-0.680173	0.692828	-89.982689	27.409067	175.741553
01139		-0.141715	-0.193193	-0.680094	0.692868	-89.980799	27.417666	175.710192
01140		-0.141540	-0.193484	-0.680010	0.692904	-89.980682	27.427762	175.671252
01141		-0.141399	-0.193721	-0.679964	0.692913	-89.984278	27.435835	175.638741
01142		-0.141310	-0.193854	-0.679951	0.692906	-89.988770	27.439585	175.619118
01143		-0.141340	-0.193818	-0.679989	0.692873	-89.993566	27.438860	175.623436
01144		-0.141437	-0.193708	-0.680012	0.692861	-89.992133	27.437633	175.641105
01145		-0.141579	-0.193508	-0.680068	0.692833	-89.991996	27.432528	175.669663
01146		-0.141658	-0.193397	-0.680144	0.692773	-89.999746	27.429427	175.683657
01147		-0.141684	-0.193401	-0.680195	0.692717	-90.008847	27.431592	175.683300
01148		-0.141581	-0.193566	-0.680195	0.692691	-90.017214	27.436711	175.658800
01149		-0.141464	-0.193797	-0.680118	0.692726	-90.015311	27.446596	175.630090
01150		-0.141281	-0.194069	-0.680033	0.692772	-90.013866	27.454359	175.592383
01151		-0.141155	-0.194302	-0.679958	0.692805	-90.012460	27.463666	175.562775
01152		-0.141062	-0.194468	-0.679962	0.692773	-90.021512	27.469652	175.538849
01153		-0.141087	-0.194455	-0.680014	0.692721	-90.029948	27.470273	175.539867
01154		-0.141195	-0.194298	-0.680053	0.692705	-90.028898	27.466030	175.562415
01155		-0.141406	-0.193985	-0.680067	0.692736	-90.015690	27.457659	175.609405
01156		-0.141584	-0.193695	-0.680053	0.692794	-89.998708	27.448515	175.652706
01157		-0.141687	-0.193505	-0.680051	0.692828	-89.988871	27.441356	175.679557
01158		-0.141602	-0.193575	-0.680076	0.692802	-89.996700	27.439949	175.664792
01159		-0.141440	-0.193788	-0.680071	0.692780	-90.006446	27.444094	175.631112
01160		-0.141266	-0.194016	-0.680045	0.692778	-90.013308	27.448675	175.595835
01161		-0.141276	-0.194074	-0.679985	0.692818	-90.005731	27.454695	175.593618
01162		-0.141400	-0.193973	-0.679927	0.692877	-89.990559	27.456957	175.616029
01163		-0.141547	-0.193742	-0.679890	0.692949	-89.972346	27.450315	175.652170
01164		-0.141617	-0.193555	-0.679862	0.693015	-89.958105	27.440883	175.677075
01165		-0.141599	-0.193395	-0.679823	0.693100	-89.943381	27.426464	175.692699
01166		-0.141515	-0.193343	-0.679792	0.693162	-89.935364	27.415413	175.692062
01167		-0.141486	-0.193287	-0.679740	0.693235	-89.923413	27.408717	175.697273
01168		-0.141508	-0.193208	-0.679685	0.693307	-89.909719	27.404344	175.709081
01169		-0.141614	-0.193042	-0.679639	0.693376	-89.893524	27.399706	175.735779
01170		-0.141751	-0.192862	-0.679634	0.693404	-89.883550	27.396118	175.764687
01171		-0.141890	-0.192641	-0.679678	0.693394	-89.880267	27.389066	175.795643
01172		-0.141993	-0.192464	-0.679754	0.693347	-89.884877	27.382522	175.817878
01173		-0.142075	-0.192318	-0.679792	0.693333	-89.884348	27.376999	175.837149
01174		-0.142051	-0.192294	-0.679814	0.693324	-89.886961	27.372935	175.836505
01175		-0.141989	-0.192375	-0.679764	0.693363	-89.882173	27.374799	175.825748
01176		-0.141847	-0.192544	-0.679671	0.693436	-89.874384	27.377565	175.801599
01177		-0.141763	-0.192707	-0.679576	0.693501	-89.865750	27.384701	175.783009
01178		-0.141717	-0.192793	-0.679531	0.693530	-89.862165	27.388247	175.772924
01179		-0.141769	-0.192731	-0.679550	0.693519	-89.862296	27.387339	175.782361
01180		-0.141852	-0.192580	-0.679635	0.693460	-89.869828	27.381208	175.800195
01181		-0.141988	-0.192339	-0.679773	0.693364	-89.882103	27.371705	175.828627
01182		-0.142139	-0.192107	-0.679917	0.693256	-89.895865	27.364184	175.857369
01183		-0.142318	-0.191881	-0.680032	0.693170	-89.904720	27.359627	175.889048
01184		-0.142434	-0.191786	-0.680104	0.693101	-89.912672	27.360863	175.904718
01185		-0.142502	-0.191787	-0.680132	0.693059	-89.917706	27.366425	175.908978
01186		-0.142471	-0.191894	-0.680132	0.693036	-89.922967	27.372686	175.896134
01187		-0.142445	-0.192010	-0.680128	0.693014	-89.927921	27.380233	175.883063
01188		-0.142468	-0.192093	-0.680099	0.693014	-89.927033	27.389116	175.878116
01189		-0.142565	-0.191997	-0.680116	0.693004	-89.925227	27.389062	175.894749
01190		-0.142710	-0.191786	-0.680162	0.692987	-89.922942	27.383415	175.925016
01191		-0.142852	-0.191584	-0.680211	0.692966	-89.921520	27.378129	175.954113
01192		-0.142922	-0.191467	-0.680255	0.692941	-89.923371	27.374043	175.969275
01193		-0.142973	-0.191475	-0.680317	0.692867	-89.934643	27.378581	175.970129
01194		-0.142971	-0.191628	-0.680400	0.692743	-89.956877	27.390554	175.951648
01195		-0.142954	-0.191823	-0.680462	0.692632	-89.977416	27.404922	175.928856
01196		-0.142924	-0.191997	-0.680494	0.692559	-89.991590	27.416583	175.908289
01197		-0.142907	-0.192174	-0.680473	0.692534	-89.996761	27.429855	175.890699
01198		-0.142872	-0.192326	-0.680433	0.692538	-89.997192	27.439720	175.874911
01199		-0.142844	-0.192426	-0.680429	0.692520	-90.001492	27.445722	175.863206
01200		-0.142826	-0.192508	-0.680440	0.692490	-90.007506	27.450880	175.853294
01201		-0.142855	-0.192536	-0.680471	0.692446	-90.014247	27.455513	175.851697
01202		-0.142862	-0.192579	-0.680527	0.692377	-90.026342	27.459301	175.845644
01203		-0.142862	-0.192635	-0.680579	0.692311	-90.038267	27.463522	175.838018
01204		-0.142771	-0.192773	-0.680623	0.692248	-90.052861	27.467128	175.815395
01205		-0.142690	-0.192909	-0.680684	0.692167	-90.070333	27.471285	175.792837
01206		-0.142576	-0.193066	-0.680784	0.692048	-90.095776	27.474167	175.764033
01207		-0.142465	-0.193105	-0.680871	0.691975	-90.112991	27.467674	175.747382
01208		-0.142367	-0.193073	-0.680910	0.691965	-90.118242	27.456627	175.740692
01209		-0.142301	-0.192924	-0.680877	0.692053	-90.105031	27.439179	175.750982
01210		-0.142267	-0.192708	-0.680773	0.692223	-90.075933	27.419142	175.773459
01211		-0.142240	-0.192458	-0.680620	0.692448	-90.036679	27.397210	175.801935
01212		-0.142129	-0.192333	-0.680478	0.692645	-90.005504	27.378601	175.810803
01213		-0.141980	-0.192307	-0.680351	0.692807	-89.981936	27.364961	175.806445
01214		-0.141775	-0.192363	-0.680285	0.692899	-89.973080	27.353013	175.786878
01215		-0.141629	-0.192367	-0.680227	0.692984	-89.963072	27.341585	175.776955
01216		-0.141562	-0.192262	-0.680191	0.693063	-89.951527	27.327545	175.783039
01217		-0.141599	-0.192006	-0.680168	0.693149	-89.934863	27.309634	175.811667
01218		-0.141660	-0.191700	-0.680119	0.693269	-89.911095	27.289779	175.848210
01219		-0.141686	-0.191416	-0.680068	0.693392	-89.888107	27.268730	175.879826
01220		-0.141614	-0.191303	-0.680043	0.693462	-89.878279	27.253587	175.885794
01221		-0.141470	-0.191317	-0.679972	0.693558	-89.866471	27.243290	175.875488
01222		-0.141236	-0.191472	-0.679883	0.693650	-89.858559	27.237312	175.844953
01223		-0.141039	-0.191653	-0.679724	0.693796	-89.839573	27.236955	175.818042
01224		-0.140898	-0.191829	-0.679561	0.693935	-89.819773	27.240780	175.796451
01225		-0.140861	-0.191906	-0.679465	0.694016	-89.806695	27.244736	175.790068
01226		-0.140831	-0.191963	-0.679459	0.694012	-89.808427	27.246998	175.782346
01227		-0.140844	-0.191935	-0.679552	0.693925	-89.823455	27.245168	175.782198
01228		-0.140900	-0.191920	-0.679688	0.693785	-89.846509	27.247789	175.782473
01229		-0.140996	-0.191830	-0.679840	0.693642	-89.868656	27.247339	175.792613
01230		-0.141173	-0.191716	-0.679927	0.693552	-89.878322	27.252002	175.814484
01231		-0.141314	-0.191644	-0.679985	0.693487	-89.884827	27.257357	175.830642
01232		-0.141399	-0.191680	-0.679970	0.693474	-89.884054	27.267413	175.834909
01233		-0.141425	-0.191806	-0.679934	0.693469	-89.883876	27.280266	175.826466
01234		-0.141362	-0.192072	-0.679914	0.693428	-89.893594	27.297072	175.796461
01235		-0.141299	-0.192361	-0.679935	0.693340	-89.911566	27.315567	175.762671
01236		-0.141301	-0.192692	-0.680017	0.693167	-89.942463	27.342545	175.727413
01237		-0.141414	-0.192884	-0.680198	0.692913	-89.983768	27.366638	175.710585
01238		-0.141622	-0.192972	-0.680391	0.692657	-90.021876	27.389920	175.711112
01239		-0.141889	-0.192942	-0.680654	0.692352	-90.066608	27.407946	175.724792
01240		-0.142149	-0.192864	-0.680905	0.692074	-90.106873	27.421431	175.743075
01241		-0.142433	-0.192698	-0.681125	0.691844	-90.137405	27.429933	175.773118
01242		-0.142701	-0.192531	-0.681270	0.691693	-90.154589	27.437474	175.805134
01243		-0.142982	-0.192386	-0.681361	0.691586	-90.163307	27.448216	175.838445
01244		-0.143151	-0.192374	-0.681430	0.691486	-90.174944	27.460827	175.850599
01245		-0.143269	-0.192388	-0.681531	0.691358	-90.193526	27.471207	175.854559
01246		-0.143310	-0.192475	-0.681584	0.691274	-90.207075	27.481454	175.847345
01247		-0.143383	-0.192585	-0.681628	0.691184	-90.220367	27.496227	175.840833
01248		-0.143488	-0.192742	-0.681678	0.691070	-90.236941	27.517597	175.832225
01249		-0.143702	-0.192857	-0.681741	0.690931	-90.253885	27.544385	175.836031
01250		-0.143948	-0.192978	-0.681873	0.690715	-90.283352	27.574002	175.838908
01251		-0.144209	-0.193025	-0.682078	0.690445	-90.321887	27.598347	175.847011
01252		-0.144454	-0.193056	-0.682337	0.690130	-90.369124	27.619623	175.852989
01253		-0.144691	-0.193051	-0.682575	0.689846	-90.410890	27.637493	175.862797
01254		-0.144834	-0.193066	-0.682765	0.689624	-90.445318	27.649461	175.864727
01255		-0.144933	-0.193128	-0.682836	0.689515	-90.460982	27.662347	175.863870
01256		-0.144943	-0.193254	-0.682769	0.689544	-90.455521	27.674012	175.855384
01257		-0.144928	-0.193365	-0.682612	0.689671	-90.433405	27.682743	175.850220
01258		-0.144890	-0.193498	-0.682416	0.689836	-90.405536	27.691687	175.842680
01259		-0.144890	-0.193592	-0.682223	0.690000	-90.376196	27.700610	175.841895
01260		-0.144926	-0.193737	-0.682081	0.690092	-90.358409	27.716421	175.837046
01261		-0.144963	-0.193819	-0.682038	0.690104	-90.354949	27.726506	175.834073
01262		-0.145035	-0.193839	-0.682024	0.690097	-90.353534	27.734165	175.838571
01263		-0.145217	-0.193758	-0.682001	0.690105	-90.345376	27.742763	175.862563
01264		-0.145387	-0.193682	-0.681949	0.690142	-90.332406	27.750889	175.886131
01265		-0.145522	-0.193613	-0.681893	0.690188	-90.319065	27.756734	175.906426
01266		-0.145614	-0.193603	-0.681793	0.690269	-90.301029	27.764268	175.919317
01267		-0.145629	-0.193631	-0.681701	0.690350	-90.286107	27.768307	175.921915
01268		-0.145549	-0.193748	-0.681566	0.690467	-90.268250	27.772088	175.909714
01269		-0.145423	-0.193904	-0.681393	0.690621	-90.245422	27.775558	175.891807
01270		-0.145280	-0.194086	-0.681182	0.690807	-90.217465	27.779961	175.871557
01271		-0.145159	-0.194210	-0.680991	0.690986	-90.189984	27.781246	175.857940
01272		-0.145087	-0.194297	-0.680820	0.691145	-90.164196	27.783509	175.850949
01273		-0.145087	-0.194328	-0.680694	0.691261	-90.143518	27.786715	175.853434
01274		-0.145086	-0.194375	-0.680619	0.691322	-90.132637	27.790977	175.852086
01275		-0.145079	-0.194438	-0.680609	0.691315	-90.134090	27.795657	175.845845
01276		-0.145049	-0.194585	-0.680663	0.691227	-90.151065	27.804986	175.826733
01277		-0.145042	-0.194730	-0.680729	0.691123	-90.169928	27.816059	175.809271
01278		-0.145040	-0.194829	-0.680783	0.691043	-90.184429	27.823701	175.797131
01279		-0.145052	-0.194848	-0.680809	0.691009	-90.190020	27.826085	175.795151
01280		-0.144994	-0.194873	-0.680767	0.691055	-90.183969	27.823597	175.789790
01281		-0.144911	-0.194904	-0.680658	0.691171	-90.166245	27.819854	175.784655
01282		-0.144745	-0.195017	-0.680527	0.691303	-90.148832	27.816237	175.765745
01283		-0.144546	-0.195120	-0.680405	0.691435	-90.132577	27.809056	175.744570
01284		-0.144342	-0.195292	-0.680283	0.691550	-90.119730	27.806972	175.716378
01285		-0.144187	-0.195421	-0.680185	0.691642	-90.108987	27.805476	175.695299
01286		-0.144126	-0.195473	-0.680109	0.691714	-90.098290	27.805195	175.688558
01287		-0.144163	-0.195415	-0.680094	0.691738	-90.092631	27.803490	175.697895
01288		-0.144242	-0.195299	-0.680141	0.691708	-90.095039	27.800210	175.713676
01289		-0.144308	-0.195158	-0.680252	0.691626	-90.107425	27.793367	175.727915
01290		-0.144318	-0.195072	-0.680374	0.691528	-90.124494	27.786338	175.731833
01291		-0.144329	-0.194955	-0.680479	0.691455	-90.137156	27.776974	175.739427
01292		-0.144291	-0.194853	-0.680482	0.691488	-90.132612	27.765391	175.746071
01293		-0.144269	-0.194784	-0.680419	0.691575	-90.117885	27.758241	175.753722
01294		-0.144210	-0.194812	-0.680294	0.691702	-90.097314	27.756464	175.751536
01295		-0.144100	-0.194897	-0.680192	0.691801	-90.083647	27.754972	175.738606
01296		-0.144009	-0.195021	-0.680100	0.691875	-90.073793	27.758286	175.723049
01297		-0.144029	-0.195024	-0.680048	0.691922	-90.064666	27.760411	175.726735
01298		-0.144160	-0.194910	-0.680001	0.691973	-90.050595	27.762190	175.750605
01299		-0.144351	-0.194692	-0.679993	0.692003	-90.038227	27.759998	175.787863
01300		-0.144525	-0.194520	-0.680013	0.691994	-90.033177	27.760158	175.818018
01301		-0.144600	-0.194453	-0.680078	0.691934	-90.041228	27.760447	175.827950
01302		-0.144607	-0.194444	-0.680170	0.691845	-90.056909	27.759756	175.825371
01303		-0.144581	-0.194496	-0.680272	0.691736	-90.077479	27.761178	175.813736
01304		-0.144548	-0.194576	-0.680352	0.691641	-90.095654	27.764639	175.799725
01305		-0.144491	-0.194711	-0.680389	0.691579	-90.108944	27.770771	175.780399
01306		-0.144464	-0.194842	-0.680399	0.691537	-90.117432	27.779238	175.765007
01307		-0.144460	-0.194930	-0.680391	0.691521	-90.120520	27.786310	175.756425
01308		-0.144530	-0.194963	-0.680373	0.691515	-90.118842	27.794970	175.759922
01309		-0.144624	-0.194968	-0.680389	0.691478	-90.122044	27.802982	175.766441
01310		-0.144737	-0.194932	-0.680445	0.691409	-90.130128	27.809109	175.776863
01311		-0.144792	-0.194907	-0.680590	0.691263	-90.154320	27.810678	175.777486
01312		-0.144799	-0.194943	-0.680799	0.691045	-90.193001	27.812951	175.765438
01313		-0.144779	-0.195005	-0.681045	0.690790	-90.239528	27.814901	175.747109
01314		-0.144773	-0.195071	-0.681287	0.690533	-90.285687	27.818395	175.729642
01315		-0.144737	-0.195116	-0.681433	0.690383	-90.313794	27.818185	175.715863
01316		-0.144700	-0.195174	-0.681451	0.690357	-90.319885	27.819815	175.706423
01317		-0.144616	-0.195211	-0.681415	0.690400	-90.315379	27.816056	175.697495
01318		-0.144515	-0.195245	-0.681362	0.690465	-90.307569	27.810788	175.688229
01319		-0.144435	-0.195179	-0.681303	0.690557	-90.293948	27.799128	175.690574
01320		-0.144420	-0.195011	-0.681304	0.690607	-90.285617	27.784033	175.705573
01321		-0.144458	-0.194768	-0.681352	0.690621	-90.281683	27.766902	175.730188
01322		-0.144501	-0.194521	-0.681475	0.690560	-90.290832	27.749327	175.752317
01323		-0.144455	-0.194349	-0.681605	0.690490	-90.305054	27.730523	175.759586
01324		-0.144400	-0.194290	-0.681744	0.690380	-90.326665	27.720315	175.754700
01325		-0.144320	-0.194247	-0.681880	0.690275	-90.348436	27.709314	175.746351
01326		-0.144248	-0.194183	-0.681974	0.690215	-90.361867	27.697425	175.742575
01327		-0.144178	-0.194069	-0.682003	0.690233	-90.361154	27.682073	175.746554
01328		-0.144085	-0.193938	-0.682004	0.690288	-90.354677	27.663587	175.751658
01329		-0.143971	-0.193796	-0.681964	0.690392	-90.340426	27.642719	175.757739
01330		-0.143876	-0.193651	-0.681893	0.690522	-90.320645	27.623296	175.767023
01331		-0.143805	-0.193515	-0.681811	0.690656	-90.299287	27.606789	175.777817
01332		-0.143724	-0.193428	-0.681738	0.690769	-90.281986	27.593367	175.782754
01333		-0.143621	-0.193377	-0.681712	0.690831	-90.274847	27.580722	175.780329
01334		-0.143550	-0.193318	-0.681743	0.690831	-90.277323	27.569808	175.778848
01335		-0.143565	-0.193222	-0.681776	0.690822	-90.278367	27.562883	175.787923
01336		-0.143650	-0.193063	-0.681827	0.690800	-90.279294	27.556522	175.808123
01337		-0.143763	-0.192828	-0.681856	0.690813	-90.272695	27.546456	175.838964
01338		-0.143849	-0.192614	-0.681853	0.690857	-90.261622	27.536016	175.866761
01339		-0.143869	-0.192543	-0.681767	0.690958	-90.242835	27.532303	175.878967
01340		-0.143848	-0.192640	-0.681618	0.691082	-90.221461	27.539396	175.874349
01341		-0.143908	-0.192755	-0.681415	0.691238	-90.191357	27.555075	175.877008
01342		-0.144085	-0.192870	-0.681171	0.691409	-90.154217	27.580718	175.891024
01343		-0.144244	-0.193046	-0.680977	0.691518	-90.128870	27.609526	175.895500
01344		-0.144331	-0.193355	-0.680877	0.691512	-90.126688	27.642810	175.877149
01345		-0.144294	-0.193861	-0.680877	0.691378	-90.152217	27.681491	175.825129
01346		-0.144180	-0.194479	-0.680914	0.691192	-90.189745	27.722757	175.754305
01347		-0.144125	-0.195111	-0.680930	0.691009	-90.224615	27.770122	175.687839
01348		-0.144156	-0.195730	-0.680918	0.690840	-90.253883	27.823710	175.630843
01349		-0.144199	-0.196343	-0.680874	0.690700	-90.277403	27.878038	175.576792
01350		-0.144278	-0.196919	-0.680825	0.690568	-90.298307	27.932240	175.529359
01351		-0.144348	-0.197474	-0.680766	0.690452	-90.316517	27.984159	175.483592
01352		-0.144510	-0.197942	-0.680682	0.690368	-90.325721	28.036624	175.455126
01353		-0.144738	-0.198357	-0.680537	0.690344	-90.321580	28.090698	175.439860
01354		-0.145014	-0.198770	-0.680379	0.690323	-90.315132	28.148599	175.429334
01355		-0.145235	-0.199257	-0.680224	0.690288	-90.313208	28.208084	175.406765
01356		-0.145378	-0.199840	-0.680091	0.690222	-90.319988	28.268788	175.367459
01357		-0.145476	-0.200542	-0.679957	0.690129	-90.333109	28.335533	175.312780
01358		-0.145593	-0.201248	-0.679834	0.690020	-90.348532	28.404194	175.258629
01359		-0.145831	-0.201873	-0.679643	0.689975	-90.347798	28.476703	175.225547
01360		-0.146199	-0.202405	-0.679362	0.690018	-90.326264	28.552899	175.216202
01361		-0.146653	-0.202929	-0.678960	0.690164	-90.282961	28.636458	175.220285
01362		-0.147164	-0.203564	-0.678441	0.690378	-90.224845	28.734859	175.223539
01363		-0.147813	-0.204286	-0.677813	0.690644	-90.152113	28.852439	175.234623
01364		-0.148613	-0.205058	-0.677089	0.690953	-90.065265	28.987464	175.257783
01365		-0.149398	-0.205844	-0.676256	0.691365	-89.959951	29.123211	175.283478
01366		-0.150156	-0.206602	-0.675366	0.691845	-89.842885	29.254715	175.312759
01367		-0.150934	-0.207370	-0.674447	0.692342	-89.721419	29.388959	175.344075
01368		-0.151637	-0.208275	-0.673500	0.692839	-89.602403	29.528563	175.357378
01369		-0.152350	-0.209231	-0.672455	0.693410	-89.468832	29.673875	175.371373
01370		-0.153013	-0.210340	-0.671308	0.694038	-89.326011	29.828505	175.370966
01371		-0.153626	-0.211632	-0.670026	0.694748	-89.169540	29.995300	175.354954
01372		-0.154247	-0.212942	-0.668584	0.695600	-88.985914	30.165474	175.345896
01373		-0.154877	-0.214373	-0.667018	0.696523	-88.787415	30.347546	175.332017
01374		-0.155537	-0.215954	-0.665462	0.697375	-88.599586	30.544661	175.305620
01375		-0.156237	-0.217728	-0.663958	0.698101	-88.432301	30.761215	175.261519
01376		-0.156929	-0.219701	-0.662615	0.698603	-88.305750	30.993062	175.189211
01377		-0.157620	-0.221817	-0.661376	0.698952	-88.206721	31.236508	175.097537
01378		-0.158311	-0.224077	-0.660231	0.699158	-88.133837	31.491629	174.986629
01379		-0.159047	-0.226407	-0.659087	0.699320	-88.066476	31.756682	174.872407
01380		-0.159767	-0.228765	-0.657946	0.699463	-88.002760	32.023082	174.753410
01381		-0.160442	-0.231292	-0.656772	0.699581	-87.944992	32.300708	174.614870
01382		-0.161019	-0.234007	-0.655650	0.699597	-87.910121	32.586050	174.445386
01383		-0.161539	-0.236841	-0.654518	0.699584	-87.882931	32.877186	174.258803
01384		-0.161969	-0.239759	-0.653432	0.699506	-87.871764	33.168101	174.052445
01385		-0.162296	-0.242695	-0.652465	0.699320	-87.886032	33.451309	173.827869
01386		-0.162505	-0.245597	-0.651686	0.698985	-87.934679	33.720443	173.585357
01387		-0.162417	-0.248542	-0.651232	0.698387	-88.048198	33.965936	173.293486
01388		-0.161913	-0.251814	-0.651168	0.697391	-88.258145	34.200496	172.907942
01389		-0.161097	-0.255421	-0.651358	0.696090	-88.541913	34.433913	172.443268
01390		-0.160070	-0.259226	-0.651657	0.694639	-88.865095	34.663689	171.929619
01391		-0.158953	-0.263121	-0.651925	0.693177	-89.195167	34.891911	171.396336
01392		-0.157949	-0.267037	-0.652091	0.691752	-89.513917	35.130480	170.872093
01393		-0.157206	-0.270888	-0.652176	0.690342	-89.819191	35.384610	170.377374
01394		-0.156793	-0.274576	-0.652201	0.688954	-90.106982	35.652095	169.927695
01395		-0.156699	-0.278003	-0.652201	0.687600	-90.375334	35.923713	169.531513
01396		-0.156773	-0.281253	-0.652225	0.686237	-90.639035	36.193634	169.164477
01397		-0.156919	-0.284461	-0.652268	0.684839	-90.907947	36.464631	168.803414
01398		-0.157091	-0.287712	-0.652305	0.683405	-91.184135	36.740398	168.436237
01399		-0.157270	-0.291037	-0.652320	0.681940	-91.467549	37.021918	168.058511
01400		-0.157438	-0.294499	-0.652321	0.680412	-91.765580	37.312501	167.660264
01401		-0.157509	-0.298105	-0.652335	0.678810	-92.084464	37.604752	167.231790
01402		-0.157512	-0.301799	-0.652353	0.677158	-92.418168	37.896617	166.781927
01403		-0.157594	-0.305394	-0.652256	0.675619	-92.727753	38.187884	166.353196
01404		-0.157946	-0.308721	-0.652005	0.674265	-92.990517	38.483026	165.984539
01405		-0.158677	-0.311733	-0.651511	0.673184	-93.183738	38.789996	165.697408
01406		-0.159788	-0.314416	-0.650793	0.672369	-93.308091	39.108014	165.493756
01407		-0.161226	-0.316752	-0.649916	0.671777	-93.372997	39.430320	165.368462
01408		-0.162980	-0.318706	-0.648869	0.671441	-93.371245	39.753751	165.327383
01409		-0.164882	-0.320277	-0.647707	0.671351	-93.311067	40.062811	165.354726
01410		-0.166721	-0.321642	-0.646479	0.671428	-93.217806	40.352071	165.408578
01411		-0.168295	-0.323104	-0.645270	0.671496	-93.137429	40.625926	165.427616
01412		-0.169575	-0.324842	-0.644087	0.671471	-93.089560	40.895932	165.385578
01413		-0.170717	-0.326661	-0.642869	0.671466	-93.043852	41.161374	165.323977
01414		-0.172016	-0.328350	-0.641517	0.671605	-92.960032	41.433074	165.301465
01415		-0.173713	-0.329714	-0.639980	0.671966	-92.808222	41.717555	165.367627
01416		-0.175844	-0.330777	-0.638350	0.672440	-92.608177	42.017248	165.516282
01417		-0.178426	-0.331510	-0.636662	0.672998	-92.362594	42.330441	165.751171
01418		-0.181421	-0.331941	-0.634897	0.673653	-92.069419	42.655839	166.068362
01419		-0.184714	-0.332092	-0.633054	0.674417	-91.730026	42.984906	166.456266
01420		-0.188242	-0.332133	-0.631141	0.675214	-91.362784	43.324994	166.887469
01421		-0.191696	-0.332225	-0.629217	0.675992	-90.995986	43.661740	167.310563
01422		-0.194975	-0.332538	-0.627374	0.676613	-90.665819	43.998900	167.686808
01423		-0.197943	-0.333134	-0.625657	0.677048	-90.388379	44.329541	167.992232
01424		-0.200516	-0.334088	-0.624158	0.677204	-90.191461	44.651954	168.200681
01425		-0.202710	-0.335343	-0.622817	0.677165	-90.057669	44.964449	168.325106
01426		-0.204645	-0.336734	-0.621599	0.677012	-89.963325	45.264194	168.399459
01427		-0.206456	-0.338121	-0.620414	0.676858	-89.875549	45.552794	168.461683
01428		-0.208263	-0.339346	-0.619239	0.676768	-89.771741	45.827489	168.545528
01429		-0.210155	-0.340371	-0.618003	0.676797	-89.633226	46.093868	168.670395
01430		-0.212202	-0.341193	-0.616755	0.676884	-89.468508	46.356594	168.839076
01431		-0.214389	-0.341893	-0.615552	0.676936	-89.298407	46.619982	169.034362
01432		-0.216684	-0.342558	-0.614477	0.676846	-89.149462	46.887422	169.233953
01433		-0.219027	-0.343326	-0.613613	0.676486	-89.055074	47.164219	169.405738
01434		-0.221405	-0.344364	-0.613011	0.675730	-89.045403	47.463029	169.519495
01435		-0.223832	-0.345603	-0.612626	0.674646	-89.104985	47.779994	169.588622
01436		-0.226440	-0.346952	-0.612406	0.673282	-89.213144	48.119560	169.641593
01437		-0.229342	-0.348212	-0.612273	0.671768	-89.331049	48.475763	169.723087
01438		-0.232667	-0.349308	-0.612173	0.670145	-89.437763	48.854247	169.860606
01439		-0.236433	-0.350095	-0.611987	0.668584	-89.490031	49.246370	170.089319
01440		-0.240685	-0.350581	-0.611604	0.667162	-89.462889	49.658126	170.424753
01441		-0.245341	-0.350818	-0.610852	0.666028	-89.323806	50.089202	170.871498
01442		-0.250181	-0.350974	-0.609669	0.665229	-89.076786	50.534918	171.394992
01443		-0.254717	-0.351196	-0.608236	0.664703	-88.778900	50.962851	171.913451
01444		-0.258514	-0.351831	-0.606836	0.664180	-88.538191	51.362347	172.304788
01445		-0.261339	-0.353079	-0.605598	0.663542	-88.411310	51.729794	172.501401
01446		-0.263311	-0.355074	-0.604526	0.662675	-88.419942	52.087851	172.488620
01447		-0.264856	-0.357675	-0.603406	0.661681	-88.500773	52.463355	172.346253
01448		-0.266391	-0.360580	-0.602111	0.660667	-88.586669	52.867362	172.171215
01449		-0.268177	-0.363459	-0.600622	0.659721	-88.628949	53.293635	172.041289
01450		-0.270393	-0.366203	-0.598941	0.658827	-88.611298	53.748326	171.991686
01451		-0.273102	-0.368727	-0.597077	0.657993	-88.521792	54.229496	172.042928
01452		-0.276227	-0.371137	-0.595069	0.657152	-88.381984	54.739479	172.168971
01453		-0.279458	-0.373687	-0.593048	0.656167	-88.259419	55.272028	172.284010
01454		-0.282648	-0.376455	-0.590932	0.655127	-88.147290	55.822687	172.370987
01455		-0.285689	-0.379528	-0.588595	0.654138	-88.029815	56.391327	172.419903
01456		-0.288585	-0.382881	-0.586081	0.653169	-87.915575	56.975857	172.428627
01457		-0.291483	-0.386325	-0.583373	0.652278	-87.770773	57.572325	172.446735
01458		-0.294599	-0.389661	-0.580454	0.651498	-87.556713	58.182184	172.534721
01459		-0.297940	-0.392756	-0.577388	0.650844	-87.263970	58.792842	172.713064
01460		-0.301511	-0.395566	-0.574307	0.650223	-86.914781	59.398882	172.975631
01461		-0.305095	-0.398129	-0.571366	0.649578	-86.554153	59.982528	173.274336
01462		-0.308692	-0.400617	-0.568502	0.648861	-86.194313	60.560283	173.586020
01463		-0.312284	-0.403027	-0.565495	0.648277	-85.774862	61.132264	173.945018
01464		-0.315951	-0.405300	-0.562063	0.648068	-85.204251	61.701862	174.420188
01465		-0.319625	-0.407367	-0.558263	0.648255	-84.479081	62.254617	175.016878
01466		-0.323366	-0.409189	-0.554190	0.648746	-83.612075	62.789501	175.739247
01467		-0.327388	-0.410621	-0.549751	0.649601	-82.538698	63.309173	176.664244
01468		-0.331855	-0.411613	-0.544971	0.650733	-81.244382	63.818785	177.825936
01469		-0.336724	-0.412196	-0.539904	0.652085	-79.741502	64.312450	179.213772
01470		-0.341884	-0.412515	-0.534707	0.653479	-78.098563	64.790382	-179.236088
01471		-0.347385	-0.412503	-0.529294	0.654991	-76.271039	65.245229	-177.481953
01472		-0.353178	-0.412041	-0.523615	0.656746	-74.221448	65.653717	-175.493021
01473		-0.359107	-0.411248	-0.517757	0.658669	-72.005451	66.009559	-173.331851
01474		-0.365092	-0.410339	-0.511943	0.660488	-69.733617	66.328271	-171.096872
01475		-0.371034	-0.409439	-0.506162	0.662189	-67.432842	66.614910	-168.827857
01476		-0.376765	-0.408673	-0.500391	0.663810	-65.131261	66.870911	-166.573563
01477		-0.382185	-0.407984	-0.494692	0.665405	-62.854098	67.083999	-164.361642
01478		-0.387310	-0.407198	-0.488993	0.667133	-60.567968	67.234181	-162.161587
01479		-0.392368	-0.405981	-0.483142	0.669178	-58.184976	67.292484	-159.872614
01480		-0.397462	-0.404158	-0.477174	0.671555	-55.713218	67.241747	-157.485830
01481		-0.402712	-0.401803	-0.471209	0.674048	-53.209705	67.100811	-155.035332
01482		-0.408161	-0.399051	-0.465258	0.676533	-50.705493	66.888624	-152.549476
01483		-0.413627	-0.396006	-0.459364	0.679026	-48.258520	66.607685	-150.101189
01484		-0.418831	-0.392979	-0.453716	0.681388	-45.978629	66.291488	-147.815119
01485		-0.423667	-0.390218	-0.448615	0.683360	-43.958178	65.985947	-145.770494
01486		-0.428116	-0.387765	-0.444042	0.684968	-42.179268	65.701897	-143.955413
01487		-0.432325	-0.385403	-0.439702	0.686456	-40.534322	65.410543	-142.273086
01488		-0.436271	-0.383042	-0.435459	0.687984	-38.990220	65.095289	-140.704557
01489		-0.439844	-0.380606	-0.431251	0.689710	-37.548616	64.740058	-139.266641
01490		-0.443025	-0.378064	-0.427148	0.691622	-36.229173	64.346642	-137.973513
01491		-0.445760	-0.375387	-0.423336	0.693663	-35.079581	63.922117	-136.860068
01492		-0.448045	-0.372947	-0.420125	0.695457	-34.148975	63.535163	-135.955330
01493		-0.449967	-0.371230	-0.417800	0.696535	-33.453441	63.270779	-135.252288
01494		-0.451904	-0.370046	-0.416102	0.696927	-32.878662	63.108780	-134.620464
01495		-0.454179	-0.368814	-0.414381	0.697128	-32.262518	62.952027	-133.914259
01496		-0.457207	-0.366908	-0.411834	0.697663	-31.414613	62.690694	-132.963090
01497		-0.461253	-0.363846	-0.407948	0.698885	-30.239447	62.240172	-131.680392
01498		-0.466202	-0.359759	-0.402843	0.700676	-28.807002	61.613609	-130.136557
01499		-0.471545	-0.355104	-0.397197	0.702696	-27.321989	60.885888	-128.531383
01500		-0.476784	-0.350294	-0.391689	0.704664	-25.959405	60.132662	-127.034889
01501		-0.481660	-0.345373	-0.386393	0.706697	-24.755221	59.357976	-125.703740
01502		-0.486139	-0.340447	-0.381087	0.708899	-23.658035	58.562257	-124.514447
01503		-0.490470	-0.335502	-0.375524	0.711238	-22.591701	57.737321	-123.388087
01504		-0.495071	-0.330401	-0.369595	0.713540	-21.500573	56.872863	-122.232636
01505		-0.500090	-0.325078	-0.363456	0.715635	-20.402490	55.975284	-121.033171
01506		-0.505498	-0.319816	-0.357486	0.717212	-19.338180	55.101636	-119.805716
01507		-0.511123	-0.314779	-0.351836	0.718247	-18.330511	54.276236	-118.581839
01508		-0.516798	-0.309965	-0.346421	0.718912	-17.378630	53.488199	-117.385917
01509		-0.522443	-0.305202	-0.341023	0.719450	-16.469474	52.701147	-116.228387
01510		-0.527966	-0.300325	-0.335365	0.720130	-15.587084	51.875336	-115.122917
01511		-0.533280	-0.295311	-0.329393	0.721044	-14.734141	51.003282	-114.085523
01512		-0.538258	-0.290542	-0.323382	0.722002	-13.922344	50.145149	-113.129066
01513		-0.542897	-0.286431	-0.317679	0.722703	-13.152809	49.371099	-112.238607
01514		-0.547372	-0.283070	-0.312496	0.722912	-12.420078	48.709363	-111.375368
01515		-0.551889	-0.280020	-0.307725	0.722712	-11.726793	48.108293	-110.515662
01516		-0.556615	-0.276725	-0.303141	0.722294	-11.080743	47.495022	-109.650197
01517		-0.561515	-0.272846	-0.298600	0.721868	-10.499339	46.823920	-108.800304
01518		-0.566516	-0.268274	-0.293921	0.721594	-9.978890	46.070350	-107.981632
01519		-0.571394	-0.262799	-0.289013	0.721745	-9.547517	45.204749	-107.246139
01520		-0.575972	-0.256346	-0.283842	0.722480	-9.220852	44.217182	-106.627793
01521		-0.580137	-0.249229	-0.278517	0.723708	-8.986048	43.148761	-106.126805
01522		-0.584019	-0.242360	-0.273156	0.724962	-8.758071	42.102584	-105.667684
01523		-0.587779	-0.236583	-0.268057	0.725734	-8.478540	41.186249	-105.182052
01524		-0.591661	-0.232188	-0.263331	0.725729	-8.116634	40.437394	-104.615390
01525		-0.595737	-0.228589	-0.258784	0.725172	-7.700186	39.781943	-103.982731
01526		-0.599920	-0.224964	-0.254126	0.724504	-7.279427	39.115554	-103.336683
01527		-0.604054	-0.220655	-0.249134	0.724128	-6.902026	38.356049	-102.734660
01528		-0.608098	-0.215500	-0.243815	0.724107	-6.586070	37.489569	-102.190704
01529		-0.612034	-0.209765	-0.238390	0.724282	-6.329740	36.559876	-101.695741
01530		-0.615862	-0.204025	-0.232959	0.724443	-6.089949	35.630087	-101.221794
01531		-0.619583	-0.198768	-0.227456	0.724480	-5.815906	34.740671	-100.745886
01532		-0.623142	-0.194432	-0.221805	0.724357	-5.464288	33.925086	-100.258989
01533		-0.626534	-0.190973	-0.216037	0.724095	-5.042211	33.180222	-99.766112
01534		-0.629880	-0.188201	-0.210085	0.723668	-4.553923	32.482822	-99.254669
01535		-0.633139	-0.185687	-0.203796	0.723272	-4.025056	31.780561	-98.749725
01536		-0.636269	-0.183013	-0.197063	0.723073	-3.485054	31.026462	-98.275178
01537		-0.639280	-0.179946	-0.190059	0.723062	-2.970192	30.213651	-97.840323
01538		-0.642175	-0.176471	-0.183198	0.723124	-2.518913	29.374213	-97.446535
01539		-0.644918	-0.172460	-0.176598	0.723292	-2.153306	28.506660	-97.103935
01540		-0.647486	-0.167833	-0.170235	0.723612	-1.877169	27.602912	-96.816947
01541		-0.649885	-0.162812	-0.164111	0.724023	-1.668889	26.683747	-96.573281
01542		-0.652132	-0.158023	-0.158113	0.724398	-1.461972	25.795754	-96.345238
01543		-0.654164	-0.153926	-0.152184	0.724718	-1.213331	24.974397	-96.127047
01544		-0.655882	-0.150519	-0.146114	0.725130	-0.908207	24.202192	-95.935862
01545		-0.657264	-0.147346	-0.139974	0.725742	-0.591975	23.445052	-95.792076
01546		-0.658428	-0.143779	-0.134573	0.726423	-0.383680	22.712198	-95.698925
01547		-0.659493	-0.139058	-0.130603	0.727101	-0.402101	21.992292	-95.661005
01548		-0.660577	-0.132262	-0.127787	0.727885	-0.693784	21.184257	-95.680423
01549		-0.661471	-0.122310	-0.125501	0.729209	-1.295395	20.145813	-95.807311
01550		-0.662185	-0.108791	-0.123682	0.731012	-2.225095	18.835706	-96.025576
01551		-0.663131	-0.090839	-0.122831	0.732747	-3.573292	17.219296	-96.251413
01552		-0.664772	-0.066754	-0.123149	0.733796	-5.468685	15.170876	-96.379750
01553		-0.666871	-0.033798	-0.126054	0.733656	-8.239985	12.574903	-96.369732
01554		-0.659727	-0.036923	-0.146551	0.736152	-9.928817	14.343195	-97.519992
01555		-0.653437	-0.028101	-0.153626	0.740696	-11.345389	14.028098	-98.563330
01556		-0.637507	-0.042567	-0.160754	0.752284	-11.231416	15.605286	-100.986033
01557		-0.639033	-0.048059	-0.155056	0.751854	-10.275627	15.690398	-100.694322
01558		-0.638983	-0.043070	-0.140217	0.755106	-9.300362	14.136771	-100.678795
01559		-0.638783	-0.040097	-0.141777	0.755148	-9.664305	13.986200	-100.732205
01560		-0.639321	-0.034258	-0.147965	0.753792	-10.643815	13.936146	-100.699395
01561		-0.638243	-0.031139	-0.153333	0.753767	-11.379319	14.044251	-100.894559
01562		-0.636277	-0.032191	-0.161145	0.753756	-12.051296	14.690269	-101.220946
01563		-0.635938	-0.028887	-0.164880	0.753368	-12.639938	14.668846	-101.296210
01564		-0.637166	-0.022990	-0.165963	0.752294	-13.144207	14.245817	-101.122886
01565		-0.639165	-0.017132	-0.167393	0.750436	-13.663600	13.868603	-100.825824
01566		-0.641271	-0.011850	-0.169125	0.748350	-14.167903	13.570780	-100.506798
01567		-0.643592	-0.006784	-0.169700	0.746287	-14.549040	13.212352	-100.145499
01568		-0.644882	-0.003174	-0.171129	0.744871	-14.920174	13.028967	-99.943684
01569		-0.645094	-0.000720	-0.173532	0.744137	-15.313671	13.000521	-99.911016
01570		-0.645166	0.001120	-0.175510	0.743610	-15.626237	12.991172	-99.899368
01571		-0.645230	0.002633	-0.176597	0.743293	-15.834291	12.942697	-99.886982
01572		-0.644951	0.002990	-0.177900	0.743224	-15.983299	13.004576	-99.932217
01573		-0.645156	0.002450	-0.178950	0.742795	-16.035717	13.135917	-99.906278
01574		-0.646337	0.001554	-0.178717	0.741827	-15.928502	13.221519	-99.728057
01575		-0.647801	0.000123	-0.177732	0.740787	-15.708673	13.302235	-99.505254
01576		-0.649614	-0.001949	-0.175521	0.739723	-15.324474	13.351552	-99.226028
01577		-0.651582	-0.004965	-0.172650	0.738653	-14.808011	13.434062	-98.921209
01578		-0.653080	-0.008847	-0.169844	0.737944	-14.240910	13.585764	-98.687393
01579		-0.653522	-0.014040	-0.168865	0.737697	-13.758320	13.970840	-98.618642
01580		-0.652507	-0.020947	-0.170164	0.738133	-13.379418	14.654477	-98.775061
01581		-0.650681	-0.029127	-0.172899	0.738832	-13.052633	15.547922	-99.049540
01582		-0.649027	-0.037172	-0.174489	0.739551	-12.631374	16.348421	-99.281445
01583		-0.648342	-0.043901	-0.174134	0.739867	-12.111289	16.903413	-99.350302
01584		-0.648658	-0.049398	-0.172262	0.739681	-11.521659	17.250816	-99.255683
01585		-0.649679	-0.054467	-0.169359	0.739099	-10.852454	17.491898	-99.042566
01586		-0.650915	-0.059742	-0.166430	0.738270	-10.157993	17.750678	-98.786567
01587		-0.651945	-0.065262	-0.163912	0.737456	-9.484297	18.057971	-98.554147
01588		-0.652590	-0.070961	-0.161794	0.736827	-8.839880	18.405601	-98.373921
01589		-0.652846	-0.076585	-0.159688	0.736496	-8.209588	18.742271	-98.248103
01590		-0.653007	-0.082035	-0.156603	0.736429	-7.505534	18.986815	-98.128738
01591		-0.653138	-0.087300	-0.152166	0.736638	-6.694120	19.110242	-98.004622
01592		-0.653039	-0.092400	-0.147156	0.737121	-5.849495	19.172732	-97.911191
01593		-0.652586	-0.096583	-0.142071	0.737984	-5.079173	19.146171	-97.885661
01594		-0.651899	-0.098937	-0.137479	0.739147	-4.503297	18.996013	-97.931676
01595		-0.651470	-0.098043	-0.133618	0.740352	-4.242366	18.618653	-98.003586
01596		-0.652149	-0.092406	-0.129773	0.741163	-4.328032	17.832704	-97.990289
01597		-0.653922	-0.081021	-0.126331	0.741527	-4.871658	16.581500	-97.894876
01598		-0.656003	-0.062803	-0.124220	0.741812	-6.051022	14.841957	-97.814579
01599		-0.659218	-0.038490	-0.125375	0.740426	-7.953927	12.843953	-97.537903
01600		-0.649626	-0.037132	-0.140429	0.746248	-9.561951	13.761001	-99.075835
01601		-0.642449	-0.031613	-0.138542	0.753037	-9.932171	13.039618	-100.200003
01602		-0.639284	-0.055819	-0.142529	0.753582	-8.558735	15.447808	-100.545328
01603		-0.641984	-0.054734	-0.124502	0.754560	-6.963036	14.031562	-100.075252
01604		-0.642660	-0.043411	-0.109289	0.757073	-6.435814	11.899876	-100.017233
01605		-0.643788	-0.042156	-0.110006	0.756081	-6.575345	11.852180	-99.855867
01606		-0.645950	-0.042219	-0.114403	0.753577	-6.927140	12.205985	-99.536642
01607		-0.645533	-0.044744	-0.119055	0.753068	-7.159388	12.773610	-99.595811
01608		-0.643837	-0.047101	-0.125596	0.753313	-7.597020	13.455568	-99.858231
01609		-0.644225	-0.046535	-0.129642	0.752330	-7.994228	13.712867	-99.815467
01610		-0.646426	-0.044549	-0.131553	0.750228	-8.273089	13.704923	-99.496963
01611		-0.649168	-0.042890	-0.133175	0.747667	-8.491522	13.711972	-99.090038
01612		-0.651734	-0.041789	-0.133749	0.745391	-8.577988	13.688041	-98.701695
01613		-0.653145	-0.042091	-0.134234	0.744050	-8.572069	13.767603	-98.481903
01614		-0.652693	-0.043788	-0.135480	0.744123	-8.562824	14.005814	-98.543746
01615		-0.651345	-0.046642	-0.137079	0.744838	-8.515174	14.362345	-98.736837
01616		-0.650458	-0.049861	-0.137774	0.745276	-8.351175	14.687897	-98.850905
01617		-0.650150	-0.052211	-0.137374	0.745458	-8.143984	14.860630	-98.877377
01618		-0.650330	-0.054939	-0.136547	0.745257	-7.859979	15.039716	-98.821648
01619		-0.651330	-0.059201	-0.135557	0.744237	-7.427102	15.349375	-98.619717
01620		-0.652803	-0.064405	-0.134718	0.742665	-6.923447	15.756614	-98.328174
01621		-0.654067	-0.069942	-0.134661	0.741061	-6.464540	16.249284	-98.060027
01622		-0.654837	-0.076166	-0.135198	0.739668	-6.012378	16.842440	-97.853228
01623		-0.654358	-0.082755	-0.135985	0.739239	-5.580080	17.476619	-97.829278
01624		-0.651929	-0.089750	-0.137396	0.740308	-5.218271	18.181571	-98.099985
01625		-0.648305	-0.098040	-0.139815	0.741984	-4.877695	19.073029	-98.529615
01626		-0.644221	-0.107527	-0.143674	0.743489	-4.589165	20.182113	-99.000328
01627		-0.641922	-0.116668	-0.146650	0.743518	-4.200715	21.208631	-99.174931
01628		-0.641181	-0.123643	-0.147380	0.742885	-3.733147	21.882185	-99.127268
01629		-0.641764	-0.129398	-0.145649	0.741742	-3.095957	22.265866	-98.875871
01630		-0.642912	-0.134640	-0.142612	0.740404	-2.360891	22.504082	-98.532432
01631		-0.643988	-0.139715	-0.139474	0.739125	-1.629371	22.716523	-98.197114
01632		-0.644677	-0.144395	-0.137118	0.738065	-1.009746	22.950750	-97.932597
01633		-0.644952	-0.148184	-0.135627	0.737349	-0.552547	23.170803	-97.761530
01634		-0.644826	-0.151312	-0.134766	0.736982	-0.218453	23.380141	-97.676222
01635		-0.644386	-0.154529	-0.134264	0.736791	0.081598	23.624897	-97.638000
01636		-0.643951	-0.158370	-0.133464	0.736501	0.461976	23.901647	-97.573284
01637		-0.643896	-0.162717	-0.131508	0.735953	1.003244	24.133178	-97.419216
01638		-0.644375	-0.167338	-0.128044	0.735108	1.722693	24.270202	-97.155732
01639		-0.645109	-0.171810	-0.123161	0.734266	2.565833	24.281076	-96.844415
01640		-0.645651	-0.175966	-0.117493	0.733734	3.444931	24.201348	-96.568739
01641		-0.645784	-0.179753	-0.111641	0.733613	4.293946	24.074863	-96.370438
01642		-0.645829	-0.182857	-0.105902	0.733658	5.069934	23.897252	-96.212406
01643		-0.646329	-0.184229	-0.100252	0.733668	5.700635	23.572955	-96.052320
01644		-0.647843	-0.182284	-0.094098	0.733633	6.114910	22.915926	-95.866430
01645		-0.650444	-0.175525	-0.087405	0.733808	6.186524	21.796231	-95.700482
01646		-0.653635	-0.162517	-0.081520	0.734645	5.667428	20.203393	-95.668666
01647		-0.656822	-0.141911	-0.077951	0.736458	4.321472	18.145044	-95.852262
01648		-0.658766	-0.113626	-0.079602	0.739446	1.905186	15.838079	-96.339798
01649		-0.667055	-0.100219	-0.103812	0.730902	-1.078943	16.558619	-95.386935
01650		-0.644406	-0.066179	-0.113319	0.753339	-5.057022	14.226594	-99.544124
01651		-0.634385	-0.078963	-0.119951	0.759561	-4.890471	15.791935	-100.941404
01652		-0.633886	-0.105124	-0.108875	0.758475	-1.913830	17.307264	-100.517799
01653		-0.639548	-0.099010	-0.088642	0.757177	-0.450940	15.267031	-99.688356
01654		-0.642297	-0.081751	-0.073476	0.758533	-0.378794	12.615635	-99.528599
01655		-0.647200	-0.077879	-0.081108	0.753982	-1.263637	12.851469	-98.858278
01656		-0.650118	-0.079016	-0.092680	0.750009	-2.141338	13.829335	-98.421319
01657		-0.648201	-0.081644	-0.099050	0.750572	-2.536818	14.534788	-98.695127
01658		-0.645050	-0.085369	-0.105025	0.752058	-2.842677	15.301478	-99.141697
01659		-0.643616	-0.088800	-0.109844	0.752201	-3.037266	15.961130	-99.322407
01660		-0.643899	-0.091445	-0.113276	0.751132	-3.132501	16.454352	-99.244152
01661		-0.645335	-0.092824	-0.115587	0.749377	-3.198803	16.756438	-99.003659
01662		-0.647654	-0.093805	-0.114873	0.747362	-3.005679	16.798635	-98.620363
01663		-0.650342	-0.095441	-0.111402	0.745343	-2.508614	16.688695	-98.155936
01664		-0.651697	-0.096386	-0.107454	0.744617	-2.055500	16.474929	-97.912027
01665		-0.652021	-0.097984	-0.104628	0.744528	-1.673889	16.400050	-97.820666
01666		-0.652368	-0.101237	-0.102448	0.744091	-1.217658	16.518640	-97.692577
01667		-0.652989	-0.104951	-0.100034	0.743360	-0.697263	16.658929	-97.508048
01668		-0.653655	-0.109806	-0.098114	0.742329	-0.126666	16.935124	-97.288023
01669		-0.654581	-0.116816	-0.097148	0.740568	0.543106	17.469824	-96.970242
01670		-0.655749	-0.125811	-0.097313	0.738034	1.288809	18.260142	-96.550194
01671		-0.656616	-0.136007	-0.098621	0.735276	2.038355	19.239540	-96.123494
01672		-0.656456	-0.146498	-0.099912	0.733227	2.799362	20.243318	-95.824205
01673		-0.655820	-0.157064	-0.100500	0.731526	3.626686	21.199203	-95.568054
01674		-0.654889	-0.168380	-0.101418	0.729715	4.494256	22.245348	-95.302643
01675		-0.653337	-0.180764	-0.103588	0.727836	5.343192	23.483729	-95.063622
01676		-0.650722	-0.193575	-0.107130	0.726370	6.092904	24.874846	-94.943559
01677		-0.646925	-0.206139	-0.112404	0.725507	6.642236	26.394190	-94.994904
01678		-0.642521	-0.218310	-0.118887	0.724827	7.037522	27.985562	-95.133607
01679		-0.638491	-0.229479	-0.125375	0.723844	7.362195	29.492836	-95.229740
01680		-0.635414	-0.239284	-0.132158	0.722168	7.581552	30.901012	-95.214470
01681		-0.633588	-0.247675	-0.138956	0.719663	7.730076	32.179075	-95.046186
01682		-0.633058	-0.255517	-0.145007	0.716186	7.968178	33.338969	-94.661704
01683		-0.633487	-0.263857	-0.149902	0.711761	8.430330	34.438947	-94.043038
01684		-0.634305	-0.273006	-0.154168	0.706652	9.083889	35.550404	-93.258703
01685		-0.634838	-0.282855	-0.159006	0.701207	9.784898	36.767303	-92.428764
01686		-0.634050	-0.293332	-0.165142	0.696178	10.407053	38.158549	-91.739799
01687		-0.631164	-0.304404	-0.172397	0.692279	10.909399	39.723678	-91.336676
01688		-0.625809	-0.316217	-0.180212	0.689850	11.319895	41.440457	-91.279486
01689		-0.618518	-0.328806	-0.187601	0.688569	11.750694	43.226258	-91.466083
01690		-0.609789	-0.342232	-0.194466	0.687908	12.249190	45.073621	-91.790874
01691		-0.600109	-0.356061	-0.201542	0.687364	12.730807	47.002412	-92.199906
01692		-0.590015	-0.369467	-0.208987	0.686805	13.105691	48.947972	-92.683968
01693		-0.579717	-0.381841	-0.216796	0.686386	13.288698	50.854120	-93.291983
01694		-0.569751	-0.393078	-0.223948	0.686091	13.390611	52.614144	-93.942466
01695		-0.560882	-0.402747	-0.229282	0.686029	13.523442	54.075691	-94.537122
01696		-0.553801	-0.410896	-0.232966	0.685709	13.760245	55.239562	-94.924128
01697		-0.548653	-0.417756	-0.235500	0.684835	14.119975	56.160815	-95.039796
01698		-0.544921	-0.423605	-0.237382	0.683572	14.547688	56.912398	-94.964211
01699		-0.541803	-0.428876	-0.239015	0.682193	14.985593	57.581003	-94.818185
01700		-0.538375	-0.434140	-0.241055	0.680858	15.358633	58.291256	-94.731063
01701		-0.534247	-0.439846	-0.244113	0.679355	15.642903	59.143820	-94.722953
01702		-0.529549	-0.445896	-0.248151	0.677625	15.837777	60.125327	-94.780355
01703		-0.524906	-0.451800	-0.252763	0.675619	15.967941	61.144938	-94.837996
01704		-0.521063	-0.456874	-0.257001	0.673579	16.086889	62.044280	-94.835662
01705		-0.518756	-0.460555	-0.260157	0.671640	16.249790	62.694147	-94.696811
01706		-0.518212	-0.462623	-0.262152	0.669860	16.446037	63.060622	-94.414541
01707		-0.519172	-0.463235	-0.263270	0.668253	16.635208	63.186810	-94.035834
01708		-0.520917	-0.462933	-0.264211	0.666731	16.754416	63.197800	-93.646220
01709		-0.522504	-0.462418	-0.265776	0.665224	16.736862	63.247679	-93.352036
01710		-0.523161	-0.462161	-0.268516	0.663784	16.516496	63.444807	-93.259691
01711		-0.522343	-0.462575	-0.272533	0.662502	16.087630	63.847536	-93.429318
01712		-0.520110	-0.463708	-0.277721	0.661310	15.469008	64.448940	-93.844573
01713		-0.516978	-0.465216	-0.283505	0.660252	14.703497	65.155462	-94.452176
01714		-0.513853	-0.466486	-0.288603	0.659587	13.920190	65.779592	-95.131341
01715		-0.511545	-0.467064	-0.292369	0.659312	13.228608	66.206137	-95.739169
01716		-0.510555	-0.466641	-0.295068	0.659178	12.632300	66.418900	-96.193531
01717		-0.510757	-0.465155	-0.297381	0.659032	12.030089	66.474527	-96.547870
01718		-0.511611	-0.462884	-0.300182	0.658698	11.298981	66.484910	-96.907534
01719		-0.512552	-0.460078	-0.304177	0.658099	10.314613	66.544226	-97.395760
01720		-0.513319	-0.456864	-0.309763	0.657134	9.007235	66.701547	-98.074714
01721		-0.514056	-0.453413	-0.316343	0.655813	7.509200	66.917922	-98.851561
01722		-0.515390	-0.449714	-0.322933	0.654098	6.062646	67.100294	-99.505474
01723		-0.517062	-0.445847	-0.327978	0.652914	4.837548	67.127272	-100.035771
01724		-0.519457	-0.441498	-0.331702	0.652088	3.824891	66.984611	-100.386484
01725		-0.522536	-0.436614	-0.334399	0.651538	2.976820	66.695097	-100.581324
01726		-0.526032	-0.431446	-0.336779	0.650941	2.208785	66.348922	-100.671910
01727		-0.529557	-0.426263	-0.339672	0.649994	1.396185	66.048295	-100.752326
01728		-0.532585	-0.421319	-0.343559	0.648699	0.426437	65.862603	-100.951524
01729		-0.534866	-0.416692	-0.348245	0.647311	-0.711885	65.781551	-101.327253
01730		-0.536381	-0.412494	-0.353114	0.646107	-1.924945	65.760578	-101.847264
01731		-0.537282	-0.409050	-0.357637	0.645059	-3.052900	65.787030	-102.391640
01732		-0.537740	-0.406507	-0.361487	0.644139	-3.995018	65.848314	-102.875937
01733		-0.537961	-0.404679	-0.364717	0.643284	-4.758181	65.930909	-103.277342
01734		-0.538079	-0.403397	-0.367522	0.642394	-5.377884	66.034594	-103.596164
01735		-0.538213	-0.402346	-0.370075	0.641474	-5.916387	66.141520	-103.859530
01736		-0.538315	-0.401352	-0.372276	0.640737	-6.401856	66.223619	-104.107046
01737		-0.538116	-0.400625	-0.374216	0.640229	-6.861433	66.309211	-104.390846
01738		-0.537361	-0.400635	-0.376040	0.639789	-7.278759	66.459949	-104.718172
01739		-0.536070	-0.401384	-0.377587	0.639491	-7.628293	66.662651	-105.076391
01740		-0.534215	-0.402890	-0.378682	0.639448	-7.888125	66.904146	-105.463230
01741		-0.531824	-0.405221	-0.379243	0.639636	-8.026555	67.186054	-105.852730
01742		-0.528779	-0.408539	-0.379476	0.639912	-8.068071	67.544321	-106.264417
01743		-0.524905	-0.412850	-0.379840	0.640118	-8.120220	68.018663	-106.779713
01744		-0.520363	-0.417810	-0.380420	0.640263	-8.235697	68.580307	-107.417288
01745		-0.515550	-0.422916	-0.381094	0.640405	-8.414119	69.166883	-108.135673
01746		-0.510779	-0.428044	-0.381714	0.640451	-8.587185	69.755639	-108.844537
01747		-0.506154	-0.433051	-0.382042	0.640561	-8.717201	70.311127	-109.515504
01748		-0.501772	-0.437814	-0.382284	0.640626	-8.838542	70.837199	-110.151868
01749		-0.497714	-0.442206	-0.382580	0.640599	-8.982064	71.331136	-110.761511
01750		-0.494082	-0.446187	-0.382826	0.640503	-9.108449	71.780065	-111.304717
01751		-0.490628	-0.449879	-0.382687	0.640659	-9.187477	72.166759	-111.811173
01752		-0.487024	-0.453617	-0.382256	0.641031	-9.247802	72.534855	-112.340321
01753		-0.483031	-0.457681	-0.381756	0.641460	-9.337360	72.934193	-112.947076
01754		-0.478636	-0.462152	-0.381185	0.641889	-9.445287	73.375055	-113.622784
01755		-0.474161	-0.466660	-0.380323	0.642459	-9.518833	73.799044	-114.296295
01756		-0.470054	-0.470658	-0.379062	0.643306	-9.525536	74.135927	-114.892811
01757		-0.466446	-0.474067	-0.377534	0.644327	-9.465352	74.387956	-115.386308
01758		-0.463278	-0.477101	-0.376461	0.645000	-9.467497	74.638324	-115.847868
01759		-0.459683	-0.480372	-0.375753	0.645557	-9.640123	74.943378	-116.489517
01760		-0.455883	-0.483824	-0.375541	0.645797	-9.971465	75.309468	-117.263857
01761		-0.451990	-0.487237	-0.375818	0.645806	-10.493760	75.708796	-118.189609
01762		-0.448383	-0.490693	-0.376278	0.645436	-10.990209	76.133247	-119.042055
01763		-0.445389	-0.493931	-0.376612	0.644844	-11.322441	76.530687	-119.676711
01764		-0.443007	-0.497128	-0.376715	0.643968	-11.394866	76.917051	-120.010679
01765		-0.440879	-0.500196	-0.376732	0.643041	-11.387915	77.285914	-120.245311
01766		-0.438746	-0.503337	-0.377001	0.641891	-11.442674	77.685144	-120.518122
01767		-0.436407	-0.506488	-0.377729	0.640577	-11.730968	78.118962	-121.000069
01768		-0.434013	-0.509326	-0.378386	0.639565	-12.136567	78.505393	-121.607076
01769		-0.431393	-0.511977	-0.379697	0.638443	-12.951628	78.912230	-122.581030
01770		-0.428912	-0.514721	-0.381691	0.636717	-13.985363	79.384942	-123.694850
01771		-0.427060	-0.516809	-0.383180	0.635375	-14.807035	79.742222	-124.575679
01772		-0.425795	-0.518193	-0.384673	0.634193	-15.599239	80.014956	-125.362157
01773		-0.424454	-0.519733	-0.386435	0.632760	-16.538514	80.325853	-126.278424
01774		-0.422727	-0.521559	-0.388230	0.631312	-17.674594	80.667621	-127.427671
01775		-0.421682	-0.523274	-0.390286	0.629321	-18.671738	81.029368	-128.344712
01776		-0.421305	-0.524474	-0.392085	0.627454	-19.385715	81.317985	-128.932977
01777		-0.421202	-0.525303	-0.393150	0.626162	-19.726312	81.509578	-129.188081
01778		-0.421309	-0.526025	-0.393743	0.625110	-19.753494	81.659081	-129.153289
01779		-0.421637	-0.526437	-0.394133	0.624297	-19.635026	81.756213	-128.968397
01780		-0.422019	-0.527249	-0.394563	0.623080	-19.382566	81.915913	-128.643117
01781		-0.422545	-0.528085	-0.394833	0.621843	-18.939733	82.071740	-128.128677
01782		-0.422985	-0.528852	-0.395046	0.620756	-18.524862	82.210707	-127.655537
01783		-0.423343	-0.529610	-0.395201	0.619766	-18.121047	82.341392	-127.206867
01784		-0.423371	-0.530623	-0.395291	0.618823	-17.799615	82.494493	-126.880885
01785		-0.423436	-0.531716	-0.394906	0.618085	-17.160500	82.624552	-126.279664
01786		-0.423884	-0.532210	-0.393736	0.618099	-16.063149	82.619158	-125.254027
01787		-0.424561	-0.533063	-0.392559	0.617648	-14.654829	82.667025	-123.897745
01788		-0.425339	-0.533965	-0.391275	0.617148	-13.082539	82.711598	-122.377823
01789		-0.426053	-0.534716	-0.389955	0.616840	-11.593818	82.726246	-120.950033
01790		-0.426297	-0.535775	-0.388901	0.616419	-10.401701	82.792411	-119.841518
01791		-0.426247	-0.537104	-0.387813	0.615982	-9.243068	82.885747	-118.800171
01792		-0.426097	-0.538305	-0.386482	0.615874	-8.092760	82.937996	-117.799268
01793		-0.425956	-0.539439	-0.385041	0.615881	-6.909830	82.970139	-116.774621
01794		-0.425831	-0.540553	-0.383547	0.615924	-5.693691	82.992940	-115.719988
01795		-0.425790	-0.541496	-0.381942	0.616121	-4.468500	82.982307	-114.657368
01796		-0.425540	-0.542620	-0.380399	0.616260	-3.308269	82.996887	-113.675221
01797		-0.425047	-0.543809	-0.378960	0.616438	-2.323244	83.025865	-112.882226
01798		-0.424508	-0.545033	-0.377586	0.616572	-1.364709	83.063394	-112.114176
01799		-0.424035	-0.546164	-0.376268	0.616702	-0.431186	83.092961	-111.358421
01800		-0.423754	-0.547135	-0.375108	0.616741	0.483690	83.114854	-110.586417
01801		-0.423842	-0.547786	-0.373930	0.616818	1.455912	83.093402	-109.720611
01802		-0.424250	-0.548149	-0.372746	0.616932	2.450570	83.032989	-108.799798
01803		-0.424621	-0.548533	-0.371667	0.616987	3.382939	82.983018	-107.934929
01804		-0.424847	-0.548968	-0.370591	0.617091	4.235027	82.938931	-107.164505
01805		-0.424890	-0.549553	-0.369519	0.617184	5.057936	82.913061	-106.441705
01806		-0.424799	-0.550187	-0.368427	0.617335	5.821658	82.891368	-105.793201
01807		-0.424619	-0.550782	-0.367525	0.617465	6.430076	82.882329	-105.290530
01808		-0.424439	-0.551265	-0.366891	0.617535	6.871048	82.883624	-104.929518
01809		-0.424309	-0.551632	-0.366385	0.617597	7.217264	82.882156	-104.645464
01810		-0.424238	-0.551865	-0.365901	0.617724	7.492641	82.866409	-104.423824
01811		-0.424113	-0.552053	-0.365518	0.617869	7.661093	82.855120	-104.304685
01812		-0.423865	-0.552240	-0.365223	0.618047	7.714167	82.853200	-104.304654
01813		-0.423601	-0.552397	-0.364965	0.618240	7.721387	82.851321	-104.348550
01814		-0.423405	-0.552508	-0.364751	0.618400	7.728737	82.847331	-104.381043
01815		-0.423146	-0.552679	-0.364558	0.618539	7.733379	82.852915	-104.420887
01816		-0.422766	-0.552953	-0.364351	0.618676	7.736985	82.870459	-104.475486
01817		-0.422315	-0.553264	-0.364017	0.618903	7.755123	82.881854	-104.534563
01818		-0.421805	-0.553646	-0.363540	0.619189	7.828654	82.889522	-104.557828
01819		-0.421440	-0.553706	-0.362856	0.619785	7.802524	82.839844	-104.684360
01820		-0.420852	-0.553676	-0.362773	0.620259	7.373286	82.836127	-105.178914
01821		-0.420408	-0.554136	-0.362637	0.620230	7.461506	82.882497	-105.149303
01822		-0.420078	-0.554280	-0.362418	0.620452	7.400316	82.883605	-105.264065
01823		-0.419565	-0.554525	-0.362331	0.620631	7.248021	82.910384	-105.475922
01824		-0.419200	-0.554539	-0.361988	0.621066	7.091293	82.885688	-105.700802
01825		-0.418728	-0.554894	-0.362014	0.621052	7.024111	82.934678	-105.813375
01826		-0.418581	-0.555107	-0.361948	0.620999	7.108574	82.955352	-105.750520
01827		-0.418392	-0.555276	-0.361855	0.621029	7.133848	82.969077	-105.753222
01828		-0.417985	-0.555541	-0.361873	0.621056	7.042312	83.006139	-105.884179
01829		-0.417558	-0.555638	-0.361737	0.621335	6.844450	83.010224	-106.137034
01830		-0.416714	-0.556170	-0.361848	0.621362	6.612268	83.091593	-106.443894
01831		-0.416035	-0.556366	-0.361700	0.621727	6.305225	83.108737	-106.832000
01832		-0.415400	-0.556670	-0.361688	0.621887	6.075781	83.150015	-107.126105
01833		-0.414991	-0.556659	-0.361710	0.622157	5.747458	83.154492	-107.492255
01834		-0.414686	-0.556689	-0.361964	0.622186	5.455582	83.183101	-107.790109
01835		-0.414263	-0.556524	-0.362314	0.622411	4.880765	83.197373	-108.372578
01836		-0.413527	-0.556607	-0.362854	0.622512	4.193541	83.259917	-109.081335
01837		-0.412515	-0.556696	-0.363350	0.622814	3.297837	83.319973	-110.029490
01838		-0.411289	-0.556832	-0.363822	0.623228	2.262700	83.382928	-111.140282
01839		-0.409877	-0.557099	-0.364145	0.623731	1.219160	83.448058	-112.292036
01840		-0.408600	-0.557400	-0.364265	0.624229	0.373505	83.498197	-113.251736
01841		-0.407609	-0.557610	-0.364160	0.624751	-0.225962	83.516418	-113.958102
01842		-0.406590	-0.557902	-0.363822	0.625350	-0.689282	83.525232	-114.553249
01843		-0.405509	-0.558355	-0.363253	0.625979	-0.988257	83.535269	-115.012292
01844		-0.404464	-0.558862	-0.362610	0.626575	-1.185587	83.546432	-115.373222
01845		-0.403517	-0.559364	-0.361775	0.627220	-1.221691	83.541258	-115.581388
01846		-0.402501	-0.560000	-0.361025	0.627737	-1.255141	83.560833	-115.786004
01847		-0.401751	-0.560529	-0.360327	0.628146	-1.172320	83.571272	-115.843158
01848		-0.401255	-0.561022	-0.359334	0.628591	-0.776880	83.553454	-115.590561
01849		-0.400730	-0.561621	-0.358020	0.629142	-0.189589	83.522753	-115.179252
01850		-0.400055	-0.562308	-0.356547	0.629793	0.407734	83.490321	-114.787330
01851		-0.399321	-0.562876	-0.355151	0.630541	0.834718	83.448886	-114.563580
01852		-0.398677	-0.563356	-0.354123	0.631097	1.112228	83.426589	-114.445713
01853		-0.398178	-0.563711	-0.353454	0.631470	1.261358	83.417810	-114.408255
01854		-0.397805	-0.563950	-0.353025	0.631731	1.323689	83.413874	-114.422669
01855		-0.397467	-0.564118	-0.352626	0.632017	1.349544	83.403136	-114.466962
01856		-0.397091	-0.564312	-0.352203	0.632316	1.374758	83.393890	-114.518019
01857		-0.396705	-0.564571	-0.351665	0.632626	1.487793	83.383667	-114.493071
01858		-0.396415	-0.564828	-0.350952	0.632974	1.746933	83.358481	-114.328980
01859		-0.396173	-0.565022	-0.350122	0.633412	2.042844	83.315502	-114.134028
01860		-0.395912	-0.565129	-0.349378	0.633891	2.223445	83.268471	-114.047789
01861		-0.395688	-0.565201	-0.348814	0.634277	2.332646	83.231941	-114.012525
01862		-0.395445	-0.565331	-0.348490	0.634490	2.373762	83.222669	-114.025231
01863		-0.395233	-0.565315	-0.348236	0.634777	2.302573	83.200369	-114.140165
01864		-0.394931	-0.565432	-0.348153	0.634906	2.192673	83.209527	-114.287156
01865		-0.394554	-0.565518	-0.348148	0.635067	1.970707	83.221323	-114.546009
01866		-0.394139	-0.565541	-0.348147	0.635305	1.673377	83.225357	-114.883250
01867		-0.393674	-0.565527	-0.348149	0.635604	1.310116	83.224809	-115.290665
01868		-0.393124	-0.565515	-0.348148	0.635956	0.884556	83.224062	-115.768773
01869		-0.392493	-0.565516	-0.348089	0.636376	0.432486	83.220179	-116.286433
01870		-0.391787	-0.565450	-0.348115	0.636855	-0.158094	83.213848	-116.941619
01871		-0.391021	-0.565450	-0.348359	0.637192	-0.844896	83.232746	-117.678748
01872		-0.390275	-0.565123	-0.348408	0.637913	-1.643917	83.191845	-118.542800
01873		-0.389218	-0.565167	-0.348671	0.638376	-2.532460	83.215019	-119.507767
01874		-0.388434	-0.564953	-0.348975	0.638877	-3.397642	83.206214	-120.418353
01875		-0.387616	-0.564749	-0.349174	0.639445	-4.228268	83.188997	-121.307217
01876		-0.386728	-0.564624	-0.349277	0.640036	-5.013628	83.173428	-122.166656
01877		-0.385774	-0.564502	-0.349317	0.640697	-5.810974	83.151615	-123.050164
01878		-0.384856	-0.564434	-0.349431	0.641248	-6.584207	83.141779	-123.899572
01879		-0.383945	-0.564147	-0.349584	0.641962	-7.482085	83.103224	-124.867952
01880		-0.383133	-0.563996	-0.349899	0.642408	-8.314351	83.095024	-125.747170
01881		-0.382440	-0.563834	-0.350199	0.642800	-9.055200	83.084547	-126.525018
01882		-0.381770	-0.563663	-0.350404	0.643236	-9.730124	83.065280	-127.243406
01883		-0.381129	-0.563512	-0.350511	0.643690	-10.317483	83.041460	-127.880535
01884		-0.380567	-0.563336	-0.350547	0.644157	-10.817084	83.009752	-128.428898
01885		-0.380113	-0.563067	-0.350625	0.644617	-11.297270	82.968991	-128.943170
01886		-0.379769	-0.562957	-0.350815	0.644813	-11.690165	82.960163	-129.350370
01887		-0.379427	-0.562803	-0.351080	0.645004	-12.139255	82.949990	-129.806408
01888		-0.379077	-0.562663	-0.351263	0.645232	-12.542485	82.935696	-130.224909
01889		-0.378666	-0.562583	-0.351444	0.645445	-12.961515	82.928331	-130.665459
01890		-0.378198	-0.562556	-0.351667	0.645622	-13.423231	82.929792	-131.150586
01891		-0.377724	-0.562486	-0.351880	0.645844	-13.898739	82.923995	-131.650573
01892		-0.377363	-0.562215	-0.352110	0.646165	-14.376462	82.892024	-132.139497
01893		-0.377030	-0.562153	-0.352342	0.646287	-14.759489	82.890729	-132.532095
01894		-0.376725	-0.562018	-0.352536	0.646477	-15.127235	82.876685	-132.909873
01895		-0.376325	-0.561975	-0.352699	0.646658	-15.508910	82.871555	-133.313727
01896		-0.375913	-0.561953	-0.352837	0.646841	-15.876566	82.867422	-133.707263
01897		-0.375478	-0.561948	-0.352937	0.647044	-16.232637	82.862405	-134.094864
01898		-0.375077	-0.561895	-0.352999	0.647289	-16.557456	82.848573	-134.451349
01899		-0.374698	-0.561772	-0.353055	0.647585	-16.882474	82.824304	-134.806099
01900		-0.374332	-0.561654	-0.353199	0.647820	-17.247908	82.806454	-135.191792
01901		-0.374019	-0.561494	-0.353366	0.648048	-17.600631	82.784985	-135.557553
01902		-0.373748	-0.561298	-0.353593	0.648250	-17.969294	82.762840	-135.929512
