// General information: 
//  MT Manager version: 2022.2.0 
//  XDA version: 2022.2.0 build 7381 rev 124627 built on 2023-07-19
// Device information: 
//  DeviceId: 10B41517
//  ProductCode: MTW2-3A7G6
//  Firmware Version: 4.14.0
//  Hardware Version: 3.0.0
// Device settings: 
//  Filter Profile: human(46.1)
//  Option Flags: Orientation Smoother Disabled, Position/Velocity Smoother Disabled, Continuous Zero Rotation Update Disabled, AHS Disabled, ICC Disabled
// Coordinate system: ENU
PacketCounter	SampleTimeFine	Quat_q0	Quat_q1	Quat_q2	Quat_q3	Roll	Pitch	Yaw
00370		-0.689881	-0.270641	0.592074	-0.316648	-0.578295	-81.233369	49.805208
00371		-0.689899	-0.270652	0.591943	-0.316845	-0.623706	-81.215928	49.869834
00372		-0.689916	-0.270650	0.591820	-0.317038	-0.676731	-81.198872	49.940574
00373		-0.689934	-0.270578	0.591739	-0.317212	-0.766731	-81.182989	50.040231
00374		-0.689958	-0.270517	0.591643	-0.317391	-0.848457	-81.165854	50.133126
00375		-0.689967	-0.270515	0.591521	-0.317602	-0.910344	-81.148761	50.214270
00376		-0.689986	-0.270559	0.591373	-0.317797	-0.932774	-81.131274	50.258660
00377		-0.689995	-0.270647	0.591227	-0.317975	-0.927688	-81.116702	50.277955
00378		-0.689993	-0.270750	0.591103	-0.318123	-0.909764	-81.106207	50.282813
00379		-0.689980	-0.270875	0.591004	-0.318227	-0.870660	-81.100661	50.264366
00380		-0.689953	-0.270971	0.590949	-0.318307	-0.848653	-81.099145	50.258201
00381		-0.689965	-0.271037	0.590880	-0.318352	-0.815415	-81.093956	50.235079
00382		-0.689958	-0.271090	0.590827	-0.318421	-0.807202	-81.089950	50.237841
00383		-0.689965	-0.271151	0.590760	-0.318476	-0.782909	-81.084753	50.224188
00384		-0.689961	-0.271219	0.590700	-0.318539	-0.761775	-81.080755	50.214931
00385		-0.689954	-0.271265	0.590658	-0.318592	-0.752834	-81.078002	50.214938
00386		-0.689982	-0.271242	0.590633	-0.318599	-0.755331	-81.073124	50.216137
00387		-0.690028	-0.271172	0.590609	-0.318603	-0.777191	-81.065385	50.232427
00388		-0.690081	-0.271046	0.590596	-0.318619	-0.833776	-81.055523	50.279520
00389		-0.690167	-0.270918	0.590551	-0.318625	-0.872332	-81.041201	50.307714
00390		-0.690244	-0.270794	0.590524	-0.318613	-0.907529	-81.029702	50.331153
00391		-0.690315	-0.270696	0.590513	-0.318565	-0.918760	-81.021961	50.329595
00392		-0.690364	-0.270607	0.590542	-0.318480	-0.923993	-81.020311	50.319237
00393		-0.690418	-0.270516	0.590581	-0.318368	-0.919837	-81.019951	50.296940
00394		-0.690485	-0.270434	0.590621	-0.318217	-0.891817	-81.020364	50.248129
00395		-0.690555	-0.270359	0.590661	-0.318055	-0.855523	-81.021249	50.190521
00396		-0.690616	-0.270279	0.590703	-0.317912	-0.831757	-81.022060	50.146888
00397		-0.690696	-0.270210	0.590726	-0.317756	-0.788644	-81.020898	50.083663
00398		-0.690783	-0.270111	0.590747	-0.317611	-0.763136	-81.017596	50.036439
00399		-0.690902	-0.269960	0.590764	-0.317448	-0.748701	-81.010642	49.994179
00400		-0.691011	-0.269806	0.590775	-0.317322	-0.752300	-81.002392	49.973025
00401		-0.691106	-0.269703	0.590742	-0.317266	-0.753216	-80.991373	49.960107
00402		-0.691180	-0.269646	0.590681	-0.317265	-0.751513	-80.979514	49.953710
00403		-0.691243	-0.269630	0.590599	-0.317294	-0.739876	-80.967333	49.943638
00404		-0.691297	-0.269644	0.590515	-0.317321	-0.713461	-80.956742	49.921336
00405		-0.691309	-0.269657	0.590489	-0.317333	-0.703658	-80.953980	49.913765
00406		-0.691360	-0.269629	0.590442	-0.317331	-0.695488	-80.945817	49.903252
00407		-0.691404	-0.269596	0.590401	-0.317340	-0.697154	-80.938120	49.903076
00408		-0.691438	-0.269594	0.590348	-0.317365	-0.689506	-80.930793	49.897758
00409		-0.691453	-0.269615	0.590289	-0.317427	-0.688512	-80.923942	49.904361
00410		-0.691479	-0.269599	0.590254	-0.317448	-0.692176	-80.918246	49.908755
00411		-0.691531	-0.269553	0.590207	-0.317462	-0.699271	-80.908888	49.913294
00412		-0.691588	-0.269459	0.590161	-0.317502	-0.740966	-80.896602	49.950547
00413		-0.691639	-0.269416	0.590101	-0.317541	-0.754180	-80.885609	49.963841
00414		-0.691698	-0.269371	0.590026	-0.317589	-0.767538	-80.872526	49.978001
00415		-0.691725	-0.269384	0.589949	-0.317662	-0.768790	-80.862792	49.987246
00416		-0.691738	-0.269426	0.589885	-0.317716	-0.753173	-80.856717	49.980458
00417		-0.691738	-0.269469	0.589851	-0.317744	-0.735509	-80.854774	49.969188
00418		-0.691736	-0.269480	0.589855	-0.317730	-0.725185	-80.856046	49.958607
00419		-0.691720	-0.269470	0.589896	-0.317698	-0.729884	-80.861027	49.959311
00420		-0.691727	-0.269434	0.589907	-0.317692	-0.745940	-80.860228	49.971676
00421		-0.691745	-0.269398	0.589921	-0.317659	-0.749759	-80.859854	49.969335
00422		-0.691771	-0.269352	0.589912	-0.317656	-0.763820	-80.855774	49.979176
00423		-0.691806	-0.269309	0.589893	-0.317652	-0.771810	-80.850488	49.983113
00424		-0.691852	-0.269257	0.589878	-0.317624	-0.773295	-80.845175	49.977617
00425		-0.691895	-0.269204	0.589858	-0.317614	-0.781545	-80.839051	49.980489
00426		-0.691934	-0.269154	0.589845	-0.317594	-0.787209	-80.834149	49.980092
00427		-0.691958	-0.269139	0.589823	-0.317598	-0.786427	-80.830101	49.978412
00428		-0.691967	-0.269149	0.589800	-0.317610	-0.779392	-80.827688	49.973540
00429		-0.691973	-0.269190	0.589755	-0.317647	-0.763124	-80.824063	49.964368
00430		-0.692006	-0.269229	0.589707	-0.317631	-0.718960	-80.820026	49.922421
00431		-0.692015	-0.269236	0.589709	-0.317601	-0.701541	-80.820880	49.902886
00432		-0.692027	-0.269244	0.589727	-0.317535	-0.671835	-80.823782	49.867839
00433		-0.692032	-0.269242	0.589745	-0.317490	-0.656960	-80.826281	49.848741
00434		-0.692050	-0.269251	0.589747	-0.317441	-0.629138	-80.827133	49.817294
00435		-0.692049	-0.269305	0.589734	-0.317421	-0.590936	-80.828814	49.782042
00436		-0.692043	-0.269342	0.589742	-0.317390	-0.562158	-80.832130	49.753614
00437		-0.692028	-0.269403	0.589710	-0.317429	-0.544003	-80.831760	49.744502
00438		-0.691995	-0.269506	0.589670	-0.317490	-0.516039	-80.832650	49.731092
00439		-0.691995	-0.269568	0.589606	-0.317555	-0.497575	-80.827766	49.724192
00440		-0.692000	-0.269623	0.589539	-0.317622	-0.482329	-80.822084	49.720128
00441		-0.691991	-0.269676	0.589497	-0.317674	-0.470022	-80.819649	49.717177
00442		-0.691977	-0.269711	0.589466	-0.317731	-0.472659	-80.817652	49.728194
00443		-0.691964	-0.269762	0.589431	-0.317783	-0.463913	-80.816036	49.728719
00444		-0.691944	-0.269803	0.589424	-0.317804	-0.454574	-80.817720	49.724825
00445		-0.691950	-0.269817	0.589409	-0.317807	-0.443880	-80.816514	49.715681
00446		-0.691963	-0.269817	0.589409	-0.317779	-0.429728	-80.816538	49.699034
00447		-0.691972	-0.269824	0.589421	-0.317731	-0.406934	-80.818566	49.672479
00448		-0.691991	-0.269829	0.589427	-0.317674	-0.378571	-80.819808	49.639481
00449		-0.692006	-0.269837	0.589432	-0.317626	-0.351849	-80.821012	49.609128
00450		-0.692026	-0.269865	0.589431	-0.317561	-0.306396	-80.822651	49.560348
00451		-0.692041	-0.269874	0.589444	-0.317495	-0.274096	-80.825078	49.522800
00452		-0.692079	-0.269896	0.589428	-0.317423	-0.221739	-80.824236	49.465977
00453		-0.692091	-0.269895	0.589448	-0.317360	-0.197625	-80.827056	49.436095
00454		-0.692103	-0.269929	0.589445	-0.317311	-0.156810	-80.828682	49.393890
00455		-0.692093	-0.270007	0.589441	-0.317274	-0.103489	-80.833143	49.344054
00456		-0.692059	-0.270098	0.589456	-0.317241	-0.054871	-80.840911	49.300381
00457		-0.692017	-0.270191	0.589485	-0.317200	-0.005883	-80.850678	49.255611
00458		-0.692000	-0.270259	0.589493	-0.317167	0.037101	-80.855976	49.215532
00459		-0.691984	-0.270305	0.589513	-0.317123	0.070889	-80.861660	49.181782
00460		-0.691985	-0.270359	0.589488	-0.317121	0.104933	-80.861639	49.152345
00461		-0.691980	-0.270431	0.589452	-0.317138	0.140550	-80.861160	49.124756
00462		-0.691963	-0.270514	0.589408	-0.317188	0.167976	-80.860341	49.109259
00463		-0.691926	-0.270624	0.589369	-0.317246	0.199489	-80.861947	49.092733
00464		-0.691873	-0.270737	0.589348	-0.317304	0.225995	-80.866050	49.081346
00465		-0.691815	-0.270844	0.589349	-0.317338	0.253792	-80.872987	49.065913
00466		-0.691757	-0.270933	0.589360	-0.317369	0.270932	-80.879965	49.059245
00467		-0.691693	-0.271039	0.589368	-0.317404	0.295347	-80.887721	49.047124
00468		-0.691640	-0.271098	0.589388	-0.317428	0.300043	-80.894307	49.049655
00469		-0.691591	-0.271159	0.589405	-0.317451	0.307144	-80.900434	49.049871
00470		-0.691551	-0.271184	0.589412	-0.317505	0.286980	-80.902971	49.076952
00471		-0.691507	-0.271219	0.589435	-0.317529	0.280891	-80.908285	49.088102
00472		-0.691471	-0.271252	0.589444	-0.317562	0.274560	-80.911609	49.100227
00473		-0.691438	-0.271294	0.589449	-0.317591	0.275056	-80.914857	49.105989
00474		-0.691404	-0.271350	0.589459	-0.317598	0.291705	-80.919773	49.094822
00475		-0.691379	-0.271413	0.589471	-0.317576	0.325186	-80.925425	49.064766
00476		-0.691350	-0.271452	0.589513	-0.317527	0.350495	-80.933588	49.038242
00477		-0.691340	-0.271446	0.589560	-0.317467	0.360557	-80.939667	49.022030
00478		-0.691336	-0.271419	0.589615	-0.317396	0.364030	-80.945407	49.009608
00479		-0.691327	-0.271406	0.589654	-0.317356	0.363934	-80.949888	49.004808
00480		-0.691332	-0.271385	0.589672	-0.317327	0.362578	-80.951137	49.001664
00481		-0.691339	-0.271372	0.589678	-0.317313	0.362304	-80.951094	48.999522
00482		-0.691349	-0.271356	0.589685	-0.317291	0.363977	-80.951107	48.994456
00483		-0.691373	-0.271314	0.589684	-0.317278	0.353353	-80.948223	49.000239
00484		-0.691409	-0.271255	0.589687	-0.317244	0.344716	-80.944976	49.000684
00485		-0.691465	-0.271171	0.589692	-0.317183	0.338896	-80.940430	48.993712
00486		-0.691529	-0.271093	0.589692	-0.317110	0.343015	-80.935508	48.976291
00487		-0.691580	-0.271008	0.589704	-0.317049	0.333476	-80.931779	48.972922
00488		-0.691647	-0.270942	0.589683	-0.316999	0.339450	-80.924806	48.956784
00489		-0.691697	-0.270887	0.589669	-0.316963	0.340388	-80.919421	48.947917
00490		-0.691737	-0.270864	0.589644	-0.316942	0.350905	-80.914495	48.933659
00491		-0.691757	-0.270874	0.589633	-0.316911	0.375617	-80.913586	48.907028
00492		-0.691769	-0.270877	0.589637	-0.316873	0.395127	-80.914375	48.884425
00493		-0.691781	-0.270870	0.589649	-0.316830	0.409343	-80.915564	48.865716
00494		-0.691804	-0.270853	0.589657	-0.316782	0.424483	-80.915539	48.844732
00495		-0.691849	-0.270798	0.589667	-0.316711	0.433153	-80.913429	48.824826
00496		-0.691900	-0.270720	0.589658	-0.316683	0.417984	-80.907327	48.830769
00497		-0.691941	-0.270651	0.589645	-0.316679	0.396275	-80.901164	48.846204
00498		-0.691967	-0.270606	0.589636	-0.316676	0.381736	-80.897114	48.856518
00499		-0.691967	-0.270595	0.589635	-0.316688	0.371236	-80.896287	48.867148
00500		-0.691946	-0.270616	0.589649	-0.316689	0.374436	-80.899580	48.865871
00501		-0.691908	-0.270627	0.589695	-0.316677	0.366714	-80.906495	48.873211
00502		-0.691883	-0.270647	0.589733	-0.316644	0.377756	-80.913045	48.860755
00503		-0.691854	-0.270639	0.589769	-0.316647	0.358915	-80.917486	48.879002
00504		-0.691836	-0.270643	0.589780	-0.316663	0.347852	-80.919171	48.891783
00505		-0.691818	-0.270635	0.589789	-0.316692	0.325423	-80.919942	48.916074
00506		-0.691811	-0.270607	0.589790	-0.316728	0.294573	-80.918389	48.947715
00507		-0.691787	-0.270571	0.589818	-0.316759	0.252025	-80.920032	48.989757
00508		-0.691771	-0.270537	0.589846	-0.316771	0.220236	-80.921751	49.019515
00509		-0.691744	-0.270523	0.589892	-0.316759	0.202592	-80.927049	49.034627
00510		-0.691730	-0.270512	0.589938	-0.316710	0.205183	-80.932799	49.026452
00511		-0.691709	-0.270503	0.589990	-0.316669	0.202086	-80.939246	49.024845
00512		-0.691696	-0.270515	0.590011	-0.316647	0.210587	-80.942937	49.015318
00513		-0.691682	-0.270551	0.590018	-0.316634	0.229381	-80.946101	48.998466
00514		-0.691662	-0.270622	0.590003	-0.316644	0.260938	-80.948518	48.974101
00515		-0.691657	-0.270667	0.589988	-0.316645	0.285336	-80.949201	48.953765
00516		-0.691665	-0.270692	0.589982	-0.316618	0.312930	-80.949980	48.925924
00517		-0.691681	-0.270697	0.589982	-0.316580	0.334642	-80.950255	48.901213
00518		-0.691695	-0.270689	0.589991	-0.316537	0.350246	-80.951056	48.881095
00519		-0.691689	-0.270685	0.590005	-0.316529	0.346720	-80.952604	48.883487
00520		-0.691672	-0.270715	0.590012	-0.316527	0.358137	-80.955463	48.874500
00521		-0.691654	-0.270764	0.590000	-0.316545	0.374556	-80.956946	48.864028
00522		-0.691625	-0.270830	0.590003	-0.316549	0.399550	-80.961412	48.845032
00523		-0.691582	-0.270865	0.590043	-0.316537	0.404657	-80.969098	48.841771
00524		-0.691567	-0.270865	0.590085	-0.316493	0.411404	-80.974835	48.830866
00525		-0.691526	-0.270863	0.590161	-0.316442	0.407195	-80.985076	48.830009
00526		-0.691508	-0.270874	0.590197	-0.316403	0.417981	-80.990802	48.816488
00527		-0.691474	-0.270895	0.590241	-0.316378	0.422965	-80.998091	48.810952
00528		-0.691427	-0.270937	0.590293	-0.316347	0.436524	-81.007906	48.797952
00529		-0.691357	-0.270991	0.590355	-0.316339	0.440200	-81.019723	48.797994
00530		-0.691287	-0.271061	0.590412	-0.316325	0.454992	-81.031990	48.787755
00531		-0.691221	-0.271124	0.590467	-0.316313	0.466832	-81.043342	48.780077
00532		-0.691156	-0.271168	0.590530	-0.316299	0.468385	-81.054820	48.780841
00533		-0.691123	-0.271217	0.590569	-0.316256	0.496526	-81.063266	48.752917
00534		-0.691081	-0.271230	0.590624	-0.316235	0.491694	-81.071484	48.756681
00535		-0.691055	-0.271270	0.590643	-0.316222	0.508275	-81.076670	48.742308
00536		-0.691034	-0.271322	0.590649	-0.316212	0.533876	-81.080711	48.720369
00537		-0.691010	-0.271381	0.590657	-0.316201	0.562732	-81.085416	48.695578
00538		-0.690990	-0.271430	0.590667	-0.316183	0.588987	-81.089861	48.671972
00539		-0.690956	-0.271478	0.590707	-0.316141	0.617167	-81.098320	48.644013
00540		-0.690940	-0.271539	0.590714	-0.316110	0.657082	-81.103131	48.606642
00541		-0.690925	-0.271581	0.590721	-0.316095	0.680701	-81.106601	48.585279
00542		-0.690939	-0.271574	0.590730	-0.316052	0.696695	-81.107386	48.564775
00543		-0.690961	-0.271546	0.590727	-0.316034	0.694930	-81.105249	48.562553
00544		-0.690996	-0.271544	0.590683	-0.316041	0.707845	-81.099077	48.550358
00545		-0.691042	-0.271533	0.590634	-0.316043	0.721605	-81.091549	48.535915
00546		-0.691074	-0.271546	0.590589	-0.316045	0.743810	-81.086164	48.515249
00547		-0.691087	-0.271561	0.590575	-0.316030	0.763911	-81.085165	48.495172
00548		-0.691065	-0.271617	0.590567	-0.316045	0.783160	-81.087565	48.482228
00549		-0.691043	-0.271633	0.590597	-0.316022	0.791087	-81.092753	48.473530
00550		-0.691013	-0.271642	0.590629	-0.316019	0.783209	-81.097702	48.481742
00551		-0.690996	-0.271637	0.590661	-0.316004	0.777364	-81.101701	48.485641
00552		-0.690988	-0.271621	0.590683	-0.315991	0.767607	-81.103791	48.492749
00553		-0.690984	-0.271577	0.590714	-0.315980	0.742718	-81.105359	48.512692
00554		-0.690994	-0.271531	0.590730	-0.315969	0.722169	-81.104617	48.528124
00555		-0.690993	-0.271500	0.590749	-0.315961	0.704942	-81.105350	48.541926
00556		-0.691017	-0.271500	0.590731	-0.315942	0.721738	-81.102852	48.523440
00557		-0.691030	-0.271492	0.590743	-0.315900	0.736190	-81.103935	48.504528
00558		-0.691062	-0.271486	0.590746	-0.315830	0.769622	-81.103846	48.464226
00559		-0.691089	-0.271435	0.590762	-0.315784	0.765232	-81.102864	48.459978
00560		-0.691118	-0.271412	0.590754	-0.315754	0.773884	-81.100392	48.446788
00561		-0.691143	-0.271392	0.590736	-0.315751	0.774155	-81.096561	48.444530
00562		-0.691169	-0.271380	0.590714	-0.315744	0.780968	-81.092862	48.436225
00563		-0.691171	-0.271365	0.590717	-0.315749	0.770545	-81.092340	48.445673
00564		-0.691174	-0.271378	0.590705	-0.315752	0.779223	-81.091498	48.438486
00565		-0.691157	-0.271366	0.590719	-0.315774	0.757019	-81.092698	48.461631
00566		-0.691150	-0.271346	0.590746	-0.315755	0.747870	-81.095195	48.467117
00567		-0.691149	-0.271321	0.590765	-0.315744	0.734860	-81.096269	48.476921
00568		-0.691140	-0.271305	0.590770	-0.315768	0.713337	-81.095930	48.499039
00569		-0.691137	-0.271311	0.590755	-0.315800	0.705019	-81.094182	48.510863
00570		-0.691135	-0.271319	0.590736	-0.315832	0.698921	-81.092153	48.520589
00571		-0.691144	-0.271318	0.590712	-0.315858	0.694280	-81.088813	48.527691
00572		-0.691174	-0.271281	0.590687	-0.315870	0.681893	-81.083126	48.537963
00573		-0.691199	-0.271254	0.590642	-0.315922	0.660236	-81.075262	48.562180
00574		-0.691217	-0.271244	0.590587	-0.315995	0.639467	-81.067124	48.588868
00575		-0.691226	-0.271270	0.590532	-0.316056	0.640027	-81.061279	48.596285
00576		-0.691228	-0.271283	0.590493	-0.316112	0.631197	-81.056791	48.611476
00577		-0.691229	-0.271292	0.590462	-0.316162	0.621094	-81.053025	48.626949
00578		-0.691235	-0.271283	0.590433	-0.316208	0.604201	-81.048562	48.647354
00579		-0.691253	-0.271269	0.590403	-0.316239	0.593927	-81.043540	48.659271
00580		-0.691273	-0.271221	0.590383	-0.316272	0.563958	-81.037890	48.688158
00581		-0.691295	-0.271182	0.590350	-0.316320	0.534454	-81.030893	48.718696
00582		-0.691328	-0.271153	0.590291	-0.316381	0.513167	-81.021110	48.743242
00583		-0.691343	-0.271143	0.590230	-0.316473	0.484998	-81.012038	48.778981
00584		-0.691350	-0.271161	0.590170	-0.316554	0.473632	-81.005080	48.799446
00585		-0.691338	-0.271173	0.590134	-0.316638	0.449438	-81.000839	48.832372
00586		-0.691321	-0.271196	0.590105	-0.316709	0.433342	-80.998396	48.857005
00587		-0.691296	-0.271218	0.590081	-0.316789	0.410618	-80.996580	48.888938
00588		-0.691247	-0.271283	0.590063	-0.316874	0.401252	-80.998200	48.911576
00589		-0.691180	-0.271361	0.590047	-0.316981	0.385177	-81.000946	48.944173
00590		-0.691119	-0.271461	0.590025	-0.317071	0.389427	-81.004163	48.956782
00591		-0.691042	-0.271539	0.590026	-0.317170	0.371262	-81.009297	48.990582
00592		-0.690973	-0.271614	0.590019	-0.317269	0.354379	-81.012960	49.022917
00593		-0.690905	-0.271677	0.590019	-0.317365	0.331241	-81.016949	49.060130
00594		-0.690839	-0.271737	0.590012	-0.317470	0.305118	-81.019803	49.100889
00595		-0.690777	-0.271823	0.589988	-0.317574	0.296955	-81.022051	49.125946
00596		-0.690702	-0.271903	0.589987	-0.317671	0.280954	-81.026925	49.157728
00597		-0.690612	-0.272018	0.589983	-0.317776	0.276785	-81.033600	49.181215
00598		-0.690535	-0.272109	0.589976	-0.317879	0.264802	-81.038455	49.210413
00599		-0.690459	-0.272215	0.589982	-0.317941	0.275168	-81.045925	49.214783
00600		-0.690395	-0.272298	0.589976	-0.318019	0.272232	-81.050368	49.232070
00601		-0.690341	-0.272379	0.589945	-0.318125	0.263652	-81.051341	49.257361
00602		-0.690299	-0.272458	0.589891	-0.318249	0.254233	-81.048806	49.284951
00603		-0.690272	-0.272512	0.589822	-0.318390	0.231257	-81.042837	49.325695
00604		-0.690249	-0.272554	0.589760	-0.318517	0.206796	-81.037048	49.365444
00605		-0.690240	-0.272605	0.589672	-0.318659	0.190078	-81.028187	49.399692
00606		-0.690214	-0.272664	0.589614	-0.318771	0.180062	-81.024015	49.425215
00607		-0.690159	-0.272745	0.589583	-0.318876	0.171383	-81.024933	49.450528
00608		-0.690118	-0.272831	0.589546	-0.318962	0.178083	-81.025250	49.459174
00609		-0.690076	-0.272908	0.589529	-0.319016	0.189364	-81.027880	49.459575
00610		-0.690047	-0.272962	0.589510	-0.319068	0.193304	-81.028641	49.465157
00611		-0.690017	-0.273012	0.589497	-0.319114	0.195744	-81.030046	49.471227
00612		-0.690015	-0.273074	0.589426	-0.319198	0.206813	-81.024224	49.473397
00613		-0.690007	-0.273152	0.589360	-0.319268	0.230191	-81.020236	49.463463
00614		-0.690012	-0.273208	0.589292	-0.319336	0.246036	-81.014419	49.458915
00615		-0.690004	-0.273260	0.589230	-0.319424	0.246426	-81.009245	49.471223
00616		-0.690002	-0.273322	0.589168	-0.319490	0.263168	-81.004651	49.466101
00617		-0.689992	-0.273381	0.589115	-0.319558	0.273923	-81.001138	49.466917
00618		-0.689978	-0.273447	0.589075	-0.319606	0.293545	-80.999825	49.457518
00619		-0.689949	-0.273524	0.589058	-0.319633	0.318538	-81.002417	49.441761
00620		-0.689927	-0.273580	0.589050	-0.319649	0.337559	-81.004815	49.429111
00621		-0.689909	-0.273602	0.589059	-0.319651	0.342411	-81.007433	49.426273
00622		-0.689908	-0.273613	0.589071	-0.319620	0.358837	-81.009890	49.408023
00623		-0.689919	-0.273581	0.589082	-0.319604	0.349068	-81.009333	49.413540
00624		-0.689964	-0.273510	0.589080	-0.319574	0.335007	-81.004496	49.418644
00625		-0.690017	-0.273443	0.589071	-0.319533	0.331378	-80.999010	49.412813
00626		-0.690077	-0.273406	0.589031	-0.319507	0.344738	-80.991254	49.394141
00627		-0.690135	-0.273371	0.588999	-0.319473	0.361031	-80.984541	49.371928
00628		-0.690201	-0.273363	0.588949	-0.319429	0.400548	-80.977157	49.327912
00629		-0.690236	-0.273353	0.588926	-0.319405	0.418139	-80.973372	49.307516
00630		-0.690252	-0.273393	0.588901	-0.319381	0.457249	-80.972495	49.269817
00631		-0.690229	-0.273443	0.588900	-0.319390	0.474489	-80.975446	49.257708
00632		-0.690214	-0.273497	0.588899	-0.319380	0.503390	-80.978656	49.232625
00633		-0.690197	-0.273512	0.588917	-0.319367	0.509337	-80.982167	49.226818
00634		-0.690187	-0.273510	0.588939	-0.319350	0.508699	-80.985048	49.225648
00635		-0.690189	-0.273501	0.588950	-0.319334	0.508629	-80.986017	49.223492
00636		-0.690200	-0.273505	0.588936	-0.319332	0.516964	-80.984364	49.215346
00637		-0.690226	-0.273505	0.588896	-0.319349	0.523749	-80.978848	49.210299
00638		-0.690239	-0.273525	0.588857	-0.319377	0.533552	-80.974703	49.204861
00639		-0.690252	-0.273567	0.588811	-0.319397	0.558929	-80.971130	49.185258
00640		-0.690244	-0.273604	0.588782	-0.319437	0.565834	-80.969426	49.185309
00641		-0.690233	-0.273648	0.588762	-0.319458	0.581142	-80.969551	49.175808
00642		-0.690227	-0.273655	0.588768	-0.319456	0.583082	-80.970772	49.174197
00643		-0.690225	-0.273659	0.588774	-0.319446	0.587616	-80.971759	49.169167
00644		-0.690222	-0.273647	0.588785	-0.319441	0.580927	-80.972598	49.174338
00645		-0.690219	-0.273658	0.588781	-0.319447	0.584228	-80.972739	49.172515
00646		-0.690212	-0.273665	0.588778	-0.319462	0.580492	-80.972726	49.178210
00647		-0.690195	-0.273683	0.588773	-0.319492	0.574416	-80.973279	49.188525
00648		-0.690170	-0.273720	0.588768	-0.319524	0.575497	-80.974864	49.193521
00649		-0.690136	-0.273759	0.588762	-0.319572	0.569367	-80.976629	49.207547
00650		-0.690100	-0.273797	0.588765	-0.319613	0.562583	-80.979447	49.221248
00651		-0.690078	-0.273810	0.588772	-0.319637	0.553325	-80.981290	49.233767
00652		-0.690068	-0.273828	0.588764	-0.319657	0.553641	-80.981257	49.236846
00653		-0.690061	-0.273799	0.588766	-0.319694	0.521070	-80.979757	49.270181
00654		-0.690063	-0.273789	0.588753	-0.319724	0.506709	-80.977297	49.286378
00655		-0.690059	-0.273796	0.588736	-0.319757	0.498786	-80.975434	49.298019
00656		-0.690041	-0.273830	0.588728	-0.319781	0.504070	-80.976608	49.297888
00657		-0.690009	-0.273861	0.588736	-0.319808	0.499884	-80.979652	49.307121
00658		-0.689982	-0.273881	0.588738	-0.319846	0.488117	-80.981255	49.324054
00659		-0.689948	-0.273923	0.588741	-0.319877	0.488198	-80.984218	49.330389
00660		-0.689908	-0.273951	0.588751	-0.319922	0.473122	-80.987450	49.351884
00661		-0.689883	-0.274002	0.588722	-0.319985	0.473741	-80.986694	49.361538
00662		-0.689859	-0.274062	0.588699	-0.320026	0.486609	-80.987413	49.357720
00663		-0.689845	-0.274092	0.588674	-0.320078	0.482593	-80.985841	49.369095
00664		-0.689834	-0.274094	0.588673	-0.320104	0.470075	-80.985825	49.384097
00665		-0.689826	-0.274089	0.588668	-0.320134	0.454369	-80.984830	49.402125
00666		-0.689828	-0.274079	0.588663	-0.320146	0.445696	-80.983602	49.411007
00667		-0.689823	-0.274067	0.588677	-0.320143	0.436604	-80.984670	49.418668
00668		-0.689842	-0.274061	0.588661	-0.320134	0.444630	-80.982211	49.409496
00669		-0.689832	-0.274048	0.588681	-0.320132	0.432207	-80.984070	49.420448
00670		-0.689821	-0.274076	0.588686	-0.320122	0.447897	-80.986494	49.406334
00671		-0.689818	-0.274116	0.588674	-0.320116	0.472788	-80.987369	49.384450
00672		-0.689821	-0.274160	0.588644	-0.320127	0.497940	-80.986062	49.364218
00673		-0.689834	-0.274176	0.588620	-0.320130	0.512201	-80.983716	49.351748
00674		-0.689850	-0.274158	0.588607	-0.320136	0.506831	-80.980858	49.356076
00675		-0.689876	-0.274129	0.588580	-0.320153	0.496423	-80.975315	49.365666
00676		-0.689922	-0.274100	0.588521	-0.320187	0.489530	-80.965475	49.373390
00677		-0.689937	-0.274095	0.588477	-0.320240	0.477194	-80.959052	49.390243
00678		-0.689959	-0.274098	0.588409	-0.320317	0.465317	-80.949967	49.409641
00679		-0.689962	-0.274128	0.588358	-0.320376	0.467329	-80.945039	49.415784
00680		-0.689948	-0.274164	0.588326	-0.320434	0.465062	-80.942898	49.426576
00681		-0.689929	-0.274220	0.588294	-0.320486	0.474425	-80.942082	49.426905
00682		-0.689897	-0.274292	0.588268	-0.320541	0.487131	-80.943174	49.425634
00683		-0.689862	-0.274391	0.588222	-0.320615	0.508773	-80.943156	49.419430
00684		-0.689818	-0.274461	0.588201	-0.320689	0.508542	-80.944652	49.432548
00685		-0.689786	-0.274521	0.588173	-0.320758	0.509382	-80.944657	49.443294
00686		-0.689749	-0.274585	0.588135	-0.320852	0.502656	-80.943682	49.464223
00687		-0.689716	-0.274612	0.588102	-0.320960	0.470531	-80.940889	49.508483
00688		-0.689697	-0.274642	0.588054	-0.321065	0.448377	-80.936253	49.542958
00689		-0.689690	-0.274656	0.588009	-0.321149	0.428046	-80.931001	49.572247
00690		-0.689686	-0.274675	0.587975	-0.321204	0.420934	-80.927643	49.586137
00691		-0.689665	-0.274679	0.587978	-0.321242	0.402176	-80.928251	49.608636
00692		-0.689666	-0.274700	0.587956	-0.321261	0.409906	-80.926560	49.604509
00693		-0.689658	-0.274726	0.587933	-0.321298	0.410502	-80.925077	49.609627
00694		-0.689639	-0.274764	0.587920	-0.321330	0.415287	-80.925814	49.611049
00695		-0.689614	-0.274791	0.587908	-0.321383	0.404168	-80.925863	49.629479
00696		-0.689594	-0.274803	0.587908	-0.321415	0.392131	-80.926633	49.645364
00697		-0.689572	-0.274817	0.587914	-0.321439	0.383236	-80.928394	49.657645
00698		-0.689547	-0.274827	0.587930	-0.321454	0.373077	-80.931231	49.669926
00699		-0.689521	-0.274832	0.587943	-0.321481	0.356225	-80.933362	49.689617
00700		-0.689496	-0.274842	0.587950	-0.321514	0.340489	-80.934950	49.709111
00701		-0.689463	-0.274855	0.587975	-0.321529	0.328460	-80.939180	49.723401
00702		-0.689428	-0.274858	0.588009	-0.321538	0.311386	-80.944078	49.741389
00703		-0.689405	-0.274854	0.588024	-0.321566	0.289170	-80.945795	49.765691
00704		-0.689376	-0.274855	0.588047	-0.321584	0.270707	-80.949043	49.785772
00705		-0.689354	-0.274868	0.588054	-0.321607	0.261328	-80.950789	49.798315
00706		-0.689336	-0.274875	0.588059	-0.321632	0.249758	-80.951972	49.812713
00707		-0.689323	-0.274899	0.588052	-0.321651	0.252563	-80.952485	49.813780
00708		-0.689305	-0.274933	0.588053	-0.321657	0.263429	-80.954890	49.806469
00709		-0.689283	-0.274955	0.588055	-0.321684	0.257690	-80.956555	49.816421
00710		-0.689292	-0.274969	0.588036	-0.321687	0.270219	-80.954887	49.805544
00711		-0.689292	-0.274957	0.588034	-0.321700	0.258920	-80.953822	49.816925
00712		-0.689292	-0.274962	0.588029	-0.321707	0.259476	-80.953389	49.817424
00713		-0.689292	-0.274951	0.588026	-0.321721	0.248484	-80.952344	49.828724
00714		-0.689296	-0.274933	0.588031	-0.321717	0.240928	-80.951947	49.834454
00715		-0.689315	-0.274892	0.588040	-0.321696	0.231186	-80.950492	49.838654
00716		-0.689340	-0.274858	0.588045	-0.321662	0.232199	-80.948922	49.831575
00717		-0.689372	-0.274809	0.588045	-0.321635	0.225386	-80.945930	49.831711
00718		-0.689388	-0.274761	0.588050	-0.321634	0.203838	-80.943513	49.848840
00719		-0.689429	-0.274724	0.588023	-0.321626	0.203166	-80.937507	49.845814
00720		-0.689454	-0.274713	0.587992	-0.321637	0.204911	-80.932579	49.844245
00721		-0.689477	-0.274704	0.587958	-0.321658	0.203972	-80.927378	49.846443
00722		-0.689491	-0.274721	0.587914	-0.321696	0.209123	-80.922385	49.846309
00723		-0.689510	-0.274731	0.587874	-0.321720	0.217218	-80.917565	49.841549
00724		-0.689513	-0.274718	0.587874	-0.321724	0.209191	-80.916743	49.848777
00725		-0.689510	-0.274721	0.587861	-0.321750	0.201976	-80.915171	49.858629
00726		-0.689492	-0.274752	0.587840	-0.321802	0.196724	-80.914238	49.871322
00727		-0.689469	-0.274767	0.587823	-0.321868	0.175723	-80.913000	49.899704
00728		-0.689439	-0.274799	0.587811	-0.321929	0.162586	-80.913278	49.921126
00729		-0.689408	-0.274823	0.587800	-0.321995	0.142784	-80.913302	49.948979
00730		-0.689387	-0.274838	0.587786	-0.322052	0.124785	-80.912369	49.973502
00731		-0.689367	-0.274868	0.587766	-0.322107	0.117410	-80.911596	49.988555
00732		-0.689355	-0.274866	0.587760	-0.322143	0.100053	-80.910708	50.009035
00733		-0.689354	-0.274861	0.587739	-0.322188	0.082560	-80.907455	50.030213
00734		-0.689348	-0.274860	0.587726	-0.322224	0.068931	-80.905747	50.047058
00735		-0.689342	-0.274852	0.587734	-0.322229	0.059506	-80.906310	50.056188
00736		-0.689354	-0.274825	0.587729	-0.322238	0.046183	-80.903850	50.067976
00737		-0.689372	-0.274814	0.587711	-0.322240	0.046997	-80.900669	50.066473
00738		-0.689383	-0.274821	0.587692	-0.322246	0.054999	-80.898598	50.059716
00739		-0.689375	-0.274829	0.587695	-0.322252	0.054035	-80.899482	50.061898
00740		-0.689363	-0.274862	0.587685	-0.322267	0.063505	-80.900236	50.056698
00741		-0.689348	-0.274869	0.587695	-0.322275	0.058648	-80.902001	50.062879
00742		-0.689327	-0.274888	0.587704	-0.322287	0.056647	-80.904406	50.067525
00743		-0.689328	-0.274884	0.587718	-0.322263	0.061785	-80.906159	50.059798
00744		-0.689347	-0.274851	0.587725	-0.322238	0.058613	-80.904990	50.057838
00745		-0.689376	-0.274787	0.587742	-0.322199	0.044637	-80.903234	50.062657
00746		-0.689422	-0.274704	0.587746	-0.322164	0.026924	-80.898441	50.069939
00747		-0.689451	-0.274615	0.587771	-0.322132	-0.004271	-80.896208	50.090363
00748		-0.689490	-0.274569	0.587763	-0.322101	-0.004842	-80.892197	50.084220
00749		-0.689537	-0.274507	0.587752	-0.322076	-0.013224	-80.886658	50.084974
00750		-0.689570	-0.274459	0.587750	-0.322047	-0.017510	-80.883464	50.082454
00751		-0.689607	-0.274419	0.587743	-0.322016	-0.015547	-80.879970	50.074287
00752		-0.689641	-0.274372	0.587752	-0.321969	-0.014385	-80.878035	50.064682
00753		-0.689680	-0.274322	0.587755	-0.321921	-0.011851	-80.875333	50.053419
00754		-0.689714	-0.274274	0.587763	-0.321873	-0.010693	-80.873398	50.043819
00755		-0.689748	-0.274248	0.587746	-0.321855	-0.005249	-80.869450	50.034544
00756		-0.689790	-0.274241	0.587714	-0.321828	0.018640	-80.864585	50.007840
00757		-0.689823	-0.274212	0.587693	-0.321821	0.018756	-80.859853	50.004588
00758		-0.689869	-0.274160	0.587670	-0.321810	0.011919	-80.853356	50.006023
00759		-0.689909	-0.274132	0.587650	-0.321784	0.021671	-80.849009	49.991623
00760		-0.689916	-0.274097	0.587661	-0.321778	0.005667	-80.848215	50.003948
00761		-0.689910	-0.274091	0.587665	-0.321789	-0.004365	-80.848296	50.014430
00762		-0.689909	-0.274099	0.587654	-0.321804	-0.004263	-80.847431	50.016418
00763		-0.689890	-0.274098	0.587671	-0.321815	-0.017318	-80.849611	50.030365
00764		-0.689879	-0.274096	0.587684	-0.321816	-0.023683	-80.851231	50.036584
00765		-0.689879	-0.274085	0.587690	-0.321813	-0.029359	-80.851432	50.041020
00766		-0.689879	-0.274090	0.587694	-0.321803	-0.023357	-80.852253	50.034447
00767		-0.689896	-0.274087	0.587684	-0.321787	-0.012556	-80.850779	50.022032
00768		-0.689907	-0.274091	0.587670	-0.321785	-0.004110	-80.849131	50.013809
00769		-0.689919	-0.274112	0.587637	-0.321802	0.008700	-80.845865	50.004532
00770		-0.689911	-0.274149	0.587597	-0.321860	0.010505	-80.842848	50.011393
00771		-0.689917	-0.274192	0.587539	-0.321919	0.021512	-80.837509	50.009648
00772		-0.689897	-0.274234	0.587512	-0.321976	0.020421	-80.836532	50.019640
00773		-0.689878	-0.274256	0.587501	-0.322015	0.013894	-80.836574	50.031725
00774		-0.689842	-0.274267	0.587526	-0.322039	-0.004160	-80.840588	50.052766
00775		-0.689813	-0.274285	0.587529	-0.322079	-0.018135	-80.842216	50.071869
00776		-0.689780	-0.274339	0.587534	-0.322097	-0.006810	-80.846212	50.066824
00777		-0.689757	-0.274386	0.587518	-0.322135	-0.000502	-80.847019	50.068103
00778		-0.689740	-0.274444	0.587493	-0.322168	0.016533	-80.847300	50.059264
00779		-0.689732	-0.274466	0.587474	-0.322199	0.017761	-80.846171	50.062903
00780		-0.689736	-0.274480	0.587461	-0.322203	0.026547	-80.845319	50.055696
00781		-0.689742	-0.274466	0.587438	-0.322244	0.009003	-80.841268	50.075792
00782		-0.689748	-0.274434	0.587435	-0.322263	-0.012848	-80.838781	50.096631
00783		-0.689760	-0.274433	0.587414	-0.322277	-0.012520	-80.835905	50.097547
00784		-0.689749	-0.274458	0.587405	-0.322295	-0.007576	-80.836240	50.096471
00785		-0.689725	-0.274492	0.587410	-0.322310	-0.003273	-80.839078	50.096433
00786		-0.689694	-0.274534	0.587429	-0.322306	0.009435	-80.844351	50.086933
00787		-0.689663	-0.274562	0.587459	-0.322292	0.016039	-80.850267	50.081396
00788		-0.689643	-0.274612	0.587459	-0.322293	0.035731	-80.853478	50.066123
00789		-0.689611	-0.274651	0.587490	-0.322271	0.051387	-80.860089	50.051769
00790		-0.689605	-0.274658	0.587504	-0.322251	0.058667	-80.862559	50.043223
00791		-0.689601	-0.274645	0.587517	-0.322249	0.050041	-80.863449	50.050452
00792		-0.689605	-0.274655	0.587500	-0.322262	0.053894	-80.861759	50.048791
00793		-0.689619	-0.274665	0.587471	-0.322276	0.062658	-80.858525	50.042252
00794		-0.689629	-0.274677	0.587448	-0.322289	0.070218	-80.856016	50.036977
00795		-0.689628	-0.274704	0.587435	-0.322290	0.085868	-80.856092	50.023943
00796		-0.689607	-0.274727	0.587449	-0.322292	0.088851	-80.859319	50.023013
00797		-0.689588	-0.274729	0.587478	-0.322276	0.086682	-80.863496	50.023780
00798		-0.689565	-0.274762	0.587486	-0.322283	0.093712	-80.866702	50.020248
00799		-0.689536	-0.274811	0.587481	-0.322312	0.101349	-80.869125	50.019487
00800		-0.689530	-0.274845	0.587464	-0.322327	0.114554	-80.869042	50.010665
00801		-0.689519	-0.274861	0.587457	-0.322349	0.112355	-80.869086	50.016291
00802		-0.689516	-0.274877	0.587447	-0.322361	0.117013	-80.868617	50.014155
00803		-0.689518	-0.274886	0.587421	-0.322396	0.113150	-80.865776	50.022061
00804		-0.689516	-0.274895	0.587411	-0.322410	0.113304	-80.864899	50.024012
00805		-0.689515	-0.274891	0.587388	-0.322458	0.096344	-80.861597	50.044997
00806		-0.689507	-0.274932	0.587362	-0.322488	0.108630	-80.860656	50.039154
00807		-0.689507	-0.274950	0.587336	-0.322520	0.109697	-80.858188	50.042645
00808		-0.689501	-0.274953	0.587337	-0.322528	0.106606	-80.858555	50.046724
00809		-0.689490	-0.274943	0.587351	-0.322534	0.093553	-80.859846	50.059365
00810		-0.689488	-0.274928	0.587358	-0.322539	0.081917	-80.859826	50.070125
00811		-0.689495	-0.274921	0.587349	-0.322546	0.078756	-80.858180	50.073331
00812		-0.689494	-0.274929	0.587339	-0.322561	0.078923	-80.857301	50.075272
00813		-0.689492	-0.274931	0.587326	-0.322586	0.071645	-80.855645	50.085062
00814		-0.689474	-0.274935	0.587336	-0.322603	0.060669	-80.857214	50.097872
00815		-0.689451	-0.274933	0.587363	-0.322603	0.048828	-80.860896	50.109391
00816		-0.689432	-0.274948	0.587377	-0.322608	0.047297	-80.863710	50.112566
00817		-0.689409	-0.274969	0.587392	-0.322612	0.047957	-80.867018	50.114027
00818		-0.689381	-0.274997	0.587402	-0.322630	0.046297	-80.870197	50.119714
00819		-0.689367	-0.274998	0.587401	-0.322659	0.032026	-80.870172	50.136614
00820		-0.689360	-0.275008	0.587402	-0.322664	0.033439	-80.870945	50.136610
00821		-0.689346	-0.274987	0.587424	-0.322671	0.011795	-80.872605	50.156906
00822		-0.689362	-0.274938	0.587429	-0.322669	-0.009491	-80.870173	50.173770
00823		-0.689364	-0.274925	0.587417	-0.322699	-0.025506	-80.867649	50.191341
00824		-0.689353	-0.274927	0.587425	-0.322708	-0.032327	-80.868827	50.199062
00825		-0.689343	-0.274932	0.587426	-0.322721	-0.037773	-80.869371	50.206125
00826		-0.689336	-0.274942	0.587436	-0.322709	-0.030967	-80.871413	50.199090
00827		-0.689332	-0.274935	0.587449	-0.322702	-0.035653	-80.872681	50.202432
00828		-0.689339	-0.274934	0.587456	-0.322675	-0.024979	-80.873543	50.189236
00829		-0.689353	-0.274919	0.587458	-0.322655	-0.021775	-80.872850	50.182882
00830		-0.689370	-0.274897	0.587469	-0.322617	-0.015470	-80.872938	50.171254
00831		-0.689395	-0.274855	0.587471	-0.322594	-0.021885	-80.870600	50.171920
00832		-0.689430	-0.274804	0.587475	-0.322556	-0.025669	-80.867850	50.167860
00833		-0.689464	-0.274744	0.587480	-0.322524	-0.036060	-80.864749	50.170035
00834		-0.689493	-0.274691	0.587481	-0.322505	-0.048961	-80.861544	50.176639
00835		-0.689516	-0.274655	0.587478	-0.322491	-0.055881	-80.858842	50.179216
00836		-0.689521	-0.274634	0.587488	-0.322481	-0.062885	-80.858860	50.183381
00837		-0.689532	-0.274638	0.587481	-0.322468	-0.051748	-80.858058	50.171481
00838		-0.689526	-0.274645	0.587495	-0.322448	-0.044508	-80.860529	50.162985
00839		-0.689526	-0.274641	0.587501	-0.322442	-0.045402	-80.861017	50.162904
00840		-0.689532	-0.274643	0.587503	-0.322423	-0.035191	-80.861448	50.151202
00841		-0.689536	-0.274654	0.587511	-0.322392	-0.018135	-80.863189	50.132223
00842		-0.689556	-0.274645	0.587510	-0.322358	-0.004063	-80.862440	50.114367
00843		-0.689606	-0.274591	0.587495	-0.322325	-0.003279	-80.856942	50.105960
00844		-0.689655	-0.274528	0.587495	-0.322273	-0.003220	-80.853014	50.095764
00845		-0.689711	-0.274443	0.587482	-0.322248	-0.020672	-80.845853	50.103585
00846		-0.689743	-0.274402	0.587472	-0.322234	-0.025799	-80.841813	50.103954
00847		-0.689777	-0.274407	0.587437	-0.322222	-0.003862	-80.837354	50.081597
00848		-0.689780	-0.274425	0.587428	-0.322216	0.009913	-80.837330	50.068807
00849		-0.689753	-0.274469	0.587437	-0.322219	0.023423	-80.841394	50.059426
00850		-0.689727	-0.274513	0.587440	-0.322231	0.034464	-80.844566	50.053348
00851		-0.689704	-0.274537	0.587450	-0.322243	0.034294	-80.847458	50.056616
00852		-0.689704	-0.274539	0.587449	-0.322243	0.035386	-80.847431	50.055581
00853		-0.689717	-0.274501	0.587455	-0.322237	0.020477	-80.845880	50.066663
00854		-0.689734	-0.274445	0.587470	-0.322220	0.000134	-80.844309	50.080527
00855		-0.689749	-0.274393	0.587481	-0.322213	-0.022919	-80.842399	50.098328
00856		-0.689768	-0.274360	0.587478	-0.322205	-0.031440	-80.839968	50.103355
00857		-0.689789	-0.274338	0.587474	-0.322186	-0.029187	-80.838030	50.097422
00858		-0.689801	-0.274342	0.587469	-0.322166	-0.015283	-80.837643	50.082119
00859		-0.689806	-0.274346	0.587477	-0.322138	-0.002717	-80.838986	50.067307
00860		-0.689813	-0.274372	0.587471	-0.322111	0.024652	-80.839823	50.039797
00861		-0.689807	-0.274375	0.587488	-0.322091	0.029650	-80.842306	50.033232
00862		-0.689818	-0.274383	0.587478	-0.322079	0.043117	-80.841485	50.019397
00863		-0.689845	-0.274357	0.587477	-0.322045	0.050292	-80.839608	50.006918
00864		-0.689860	-0.274319	0.587495	-0.322013	0.043864	-80.839694	50.007095
00865		-0.689879	-0.274248	0.587511	-0.322003	0.012282	-80.837382	50.031466
00866		-0.689908	-0.274191	0.587499	-0.322012	-0.010904	-80.832069	50.050601
00867		-0.689935	-0.274167	0.587474	-0.322019	-0.014958	-80.827168	50.053300
00868		-0.689939	-0.274146	0.587465	-0.322044	-0.032669	-80.824641	50.071450
00869		-0.689947	-0.274153	0.587438	-0.322070	-0.032243	-80.821366	50.074107
00870		-0.689921	-0.274201	0.587427	-0.322108	-0.027036	-80.822830	50.076537
00871		-0.689883	-0.274269	0.587431	-0.322124	-0.008870	-80.827679	50.065721
00872		-0.689849	-0.274322	0.587434	-0.322143	0.002473	-80.831637	50.060707
00873		-0.689817	-0.274365	0.587441	-0.322164	0.006919	-80.835215	50.061837
00874		-0.689790	-0.274386	0.587451	-0.322184	0.000773	-80.837969	50.071605
00875		-0.689793	-0.274366	0.587449	-0.322200	-0.014471	-80.836341	50.086561
00876		-0.689827	-0.274315	0.587424	-0.322216	-0.034332	-80.829779	50.103490
00877		-0.689884	-0.274223	0.587402	-0.322211	-0.061138	-80.820909	50.121980
00878		-0.689918	-0.274168	0.587373	-0.322237	-0.085841	-80.813502	50.144361
00879		-0.689949	-0.274126	0.587336	-0.322277	-0.109103	-80.805677	50.167641
00880		-0.689959	-0.274133	0.587298	-0.322318	-0.111654	-80.801037	50.174742
00881		-0.689943	-0.274170	0.587275	-0.322362	-0.110072	-80.800145	50.180471
00882		-0.689904	-0.274222	0.587285	-0.322382	-0.102525	-80.804918	50.179167
00883		-0.689856	-0.274258	0.587316	-0.322399	-0.108701	-80.811403	50.189949
00884		-0.689814	-0.274329	0.587330	-0.322404	-0.087300	-80.817837	50.175024
00885		-0.689772	-0.274358	0.587364	-0.322404	-0.089133	-80.824371	50.179306
00886		-0.689760	-0.274368	0.587372	-0.322411	-0.091448	-80.825947	50.182953
00887		-0.689748	-0.274333	0.587394	-0.322424	-0.121621	-80.826769	50.211234
00888		-0.689765	-0.274308	0.587372	-0.322450	-0.136271	-80.822194	50.226089
00889		-0.689773	-0.274289	0.587344	-0.322499	-0.158254	-80.817159	50.250984
00890		-0.689790	-0.274291	0.587300	-0.322541	-0.161481	-80.811290	50.258436
00891		-0.689786	-0.274306	0.587277	-0.322578	-0.165121	-80.809120	50.266745
00892		-0.689780	-0.274337	0.587237	-0.322638	-0.167412	-80.805623	50.277339
00893		-0.689781	-0.274380	0.587199	-0.322669	-0.149811	-80.803105	50.266498
00894		-0.689770	-0.274409	0.587184	-0.322695	-0.145211	-80.802975	50.266834
00895		-0.689767	-0.274421	0.587166	-0.322725	-0.148371	-80.801255	50.273818
00896		-0.689768	-0.274442	0.587143	-0.322744	-0.140347	-80.799520	50.269462
00897		-0.689771	-0.274452	0.587114	-0.322784	-0.144441	-80.796131	50.278163
00898		-0.689779	-0.274468	0.587066	-0.322840	-0.147742	-80.790615	50.288083
00899		-0.689796	-0.274463	0.587028	-0.322876	-0.152711	-80.785209	50.296068
00900		-0.689799	-0.274477	0.586997	-0.322915	-0.154430	-80.781783	50.302677
00901		-0.689797	-0.274476	0.586973	-0.322965	-0.170714	-80.778448	50.323436
00902		-0.689802	-0.274479	0.586947	-0.322999	-0.176447	-80.775044	50.332610
00903		-0.689835	-0.274447	0.586911	-0.323020	-0.186198	-80.768152	50.341642
00904		-0.689860	-0.274440	0.586865	-0.323056	-0.189626	-80.761486	50.347946
00905		-0.689871	-0.274453	0.586817	-0.323108	-0.191151	-80.755725	50.355589
00906		-0.689884	-0.274477	0.586762	-0.323161	-0.186213	-80.749802	50.357790
00907		-0.689882	-0.274530	0.586703	-0.323227	-0.174493	-80.745154	50.356930
00908		-0.689870	-0.274556	0.586665	-0.323299	-0.185232	-80.741610	50.376507
00909		-0.689837	-0.274598	0.586657	-0.323350	-0.190885	-80.743109	50.390506
00910		-0.689821	-0.274622	0.586644	-0.323387	-0.194836	-80.742938	50.399924
00911		-0.689790	-0.274676	0.586633	-0.323426	-0.187514	-80.744892	50.400880
00912		-0.689762	-0.274704	0.586633	-0.323462	-0.194472	-80.746757	50.413545
00913		-0.689758	-0.274714	0.586610	-0.323503	-0.202227	-80.744200	50.425997
00914		-0.689763	-0.274717	0.586584	-0.323537	-0.207885	-80.740790	50.435104
00915		-0.689774	-0.274708	0.586552	-0.323580	-0.220697	-80.735847	50.451113
00916		-0.689804	-0.274706	0.586504	-0.323606	-0.215481	-80.729210	50.448260
00917		-0.689807	-0.274681	0.586491	-0.323643	-0.239716	-80.725868	50.473746
00918		-0.689828	-0.274665	0.586462	-0.323665	-0.245936	-80.720878	50.480695
00919		-0.689853	-0.274643	0.586437	-0.323675	-0.249915	-80.716049	50.483731
00920		-0.689872	-0.274610	0.586434	-0.323667	-0.258246	-80.713613	50.488574
00921		-0.689874	-0.274588	0.586440	-0.323672	-0.272093	-80.712901	50.500822
00922		-0.689884	-0.274568	0.586434	-0.323678	-0.280515	-80.710817	50.508150
00923		-0.689904	-0.274549	0.586429	-0.323661	-0.278065	-80.708937	50.502546
00924		-0.689934	-0.274547	0.586400	-0.323651	-0.262409	-80.704869	50.485971
00925		-0.689957	-0.274542	0.586379	-0.323645	-0.252597	-80.701672	50.475287
00926		-0.689984	-0.274524	0.586357	-0.323641	-0.249484	-80.697589	50.470322
00927		-0.690014	-0.274487	0.586352	-0.323620	-0.251809	-80.694483	50.467536
00928		-0.690024	-0.274437	0.586363	-0.323619	-0.276350	-80.692844	50.487566
00929		-0.690024	-0.274427	0.586359	-0.323635	-0.286613	-80.691629	50.498428
00930		-0.690026	-0.274418	0.586344	-0.323665	-0.299903	-80.689046	50.513628
00931		-0.690035	-0.274427	0.586312	-0.323697	-0.299738	-80.685288	50.517370
00932		-0.690030	-0.274450	0.586301	-0.323707	-0.290638	-80.685208	50.511255
00933		-0.690030	-0.274469	0.586274	-0.323741	-0.289739	-80.682738	50.515119
00934		-0.690025	-0.274495	0.586267	-0.323741	-0.275851	-80.683507	50.503605
00935		-0.690036	-0.274522	0.586236	-0.323751	-0.257807	-80.681056	50.489003
00936		-0.690038	-0.274544	0.586223	-0.323752	-0.244607	-80.680599	50.477849
00937		-0.690042	-0.274573	0.586185	-0.323789	-0.236017	-80.677258	50.475321
00938		-0.690046	-0.274634	0.586109	-0.323865	-0.219326	-80.670808	50.471182
00939		-0.690028	-0.274714	0.586039	-0.323964	-0.208367	-80.666350	50.476408
00940		-0.690026	-0.274777	0.585964	-0.324048	-0.195767	-80.660271	50.477307
00941		-0.690008	-0.274827	0.585921	-0.324123	-0.195696	-80.657566	50.488535
00942		-0.689980	-0.274883	0.585899	-0.324176	-0.191246	-80.658117	50.493844
00943		-0.689958	-0.274923	0.585863	-0.324253	-0.199100	-80.655764	50.512269
00944		-0.689921	-0.274992	0.585828	-0.324337	-0.199885	-80.655375	50.526855
00945		-0.689875	-0.275067	0.585795	-0.324429	-0.202749	-80.655809	50.544682
00946		-0.689844	-0.275133	0.585759	-0.324505	-0.199434	-80.655043	50.554232
00947		-0.689806	-0.275194	0.585734	-0.324578	-0.201695	-80.655604	50.568446
00948		-0.689785	-0.275244	0.585715	-0.324615	-0.192752	-80.656214	50.567296
00949		-0.689766	-0.275273	0.585694	-0.324669	-0.199654	-80.655191	50.581671
00950		-0.689742	-0.275334	0.585651	-0.324747	-0.196998	-80.653196	50.591556
00951		-0.689729	-0.275380	0.585601	-0.324825	-0.197544	-80.649301	50.603431
00952		-0.689729	-0.275409	0.585549	-0.324895	-0.200535	-80.644093	50.615485
00953		-0.689735	-0.275419	0.585501	-0.324960	-0.209873	-80.638258	50.631873
00954		-0.689747	-0.275417	0.585458	-0.325013	-0.221132	-80.632313	50.647922
00955		-0.689754	-0.275401	0.585426	-0.325070	-0.243186	-80.626812	50.673829
00956		-0.689764	-0.275378	0.585386	-0.325139	-0.271570	-80.619993	50.706679
00957		-0.689772	-0.275390	0.585349	-0.325178	-0.271760	-80.615759	50.711598
00958		-0.689791	-0.275381	0.585310	-0.325216	-0.278498	-80.609876	50.721152
00959		-0.689803	-0.275401	0.585260	-0.325263	-0.274577	-80.604356	50.723450
00960		-0.689825	-0.275408	0.585214	-0.325295	-0.268891	-80.598491	50.721519
00961		-0.689851	-0.275417	0.585157	-0.325333	-0.262210	-80.591390	50.719368
00962		-0.689863	-0.275445	0.585106	-0.325376	-0.252250	-80.586284	50.715984
00963		-0.689868	-0.275470	0.585063	-0.325421	-0.248047	-80.582018	50.718229
00964		-0.689888	-0.275512	0.584994	-0.325468	-0.226741	-80.575263	50.705143
00965		-0.689900	-0.275530	0.584936	-0.325532	-0.228551	-80.568495	50.714600
00966		-0.689910	-0.275538	0.584888	-0.325591	-0.235669	-80.562514	50.727975
00967		-0.689932	-0.275537	0.584833	-0.325644	-0.241222	-80.554947	50.738512
00968		-0.689940	-0.275525	0.584807	-0.325683	-0.255243	-80.550680	50.755171
00969		-0.689959	-0.275508	0.584769	-0.325725	-0.268374	-80.544435	50.770791
00970		-0.689970	-0.275482	0.584744	-0.325769	-0.291017	-80.539336	50.795229
00971		-0.689987	-0.275472	0.584696	-0.325827	-0.304610	-80.532192	50.813428
00972		-0.690004	-0.275475	0.584651	-0.325870	-0.307237	-80.526276	50.820340
00973		-0.690009	-0.275469	0.584617	-0.325926	-0.323950	-80.521169	50.841805
00974		-0.690014	-0.275472	0.584590	-0.325960	-0.329236	-80.517727	50.850579
00975		-0.690007	-0.275497	0.584559	-0.326010	-0.332084	-80.515130	50.860263
00976		-0.689995	-0.275530	0.584539	-0.326044	-0.327800	-80.514527	50.862011
00977		-0.689975	-0.275533	0.584540	-0.326082	-0.345545	-80.514807	50.883462
00978		-0.689966	-0.275524	0.584552	-0.326086	-0.356136	-80.515970	50.893546
00979		-0.689985	-0.275480	0.584547	-0.326093	-0.375216	-80.512310	50.909438
00980		-0.690022	-0.275414	0.584542	-0.326079	-0.392525	-80.507471	50.919689
00981		-0.690058	-0.275348	0.584525	-0.326089	-0.417462	-80.500912	50.939817
00982		-0.690095	-0.275306	0.584484	-0.326119	-0.433107	-80.492614	50.954712
00983		-0.690151	-0.275284	0.584413	-0.326148	-0.428004	-80.481495	50.950723
00984		-0.690191	-0.275282	0.584337	-0.326200	-0.424748	-80.471064	50.952316
00985		-0.690205	-0.275318	0.584279	-0.326243	-0.408577	-80.465616	50.943500
00986		-0.690213	-0.275338	0.584245	-0.326271	-0.401537	-80.462192	50.940892
00987		-0.690238	-0.275353	0.584192	-0.326302	-0.389596	-80.455962	50.933348
00988		-0.690250	-0.275350	0.584168	-0.326320	-0.390456	-80.452587	50.935723
00989		-0.690270	-0.275354	0.584117	-0.326365	-0.391328	-80.445936	50.941275
00990		-0.690280	-0.275362	0.584069	-0.326424	-0.398134	-80.439934	50.954357
00991		-0.690278	-0.275392	0.584014	-0.326502	-0.403268	-80.434283	50.969418
00992		-0.690259	-0.275455	0.583954	-0.326597	-0.401634	-80.430135	50.982121
00993		-0.690226	-0.275516	0.583903	-0.326704	-0.409923	-80.427231	51.005638
00994		-0.690197	-0.275572	0.583861	-0.326793	-0.415243	-80.425138	51.024079
00995		-0.690173	-0.275619	0.583819	-0.326880	-0.422943	-80.422352	51.043932
00996		-0.690157	-0.275639	0.583782	-0.326963	-0.440995	-80.418663	51.071434
00997		-0.690122	-0.275655	0.583766	-0.327051	-0.472044	-80.417457	51.111907
00998		-0.690105	-0.275652	0.583747	-0.327125	-0.501593	-80.414619	51.147895
00999		-0.690081	-0.275676	0.583709	-0.327225	-0.526319	-80.410896	51.183898
01000		-0.690056	-0.275706	0.583673	-0.327313	-0.544006	-80.407976	51.212409
01001		-0.690031	-0.275739	0.583652	-0.327376	-0.554163	-80.407252	51.231178
01002		-0.690007	-0.275741	0.583659	-0.327413	-0.573286	-80.408241	51.253769
01003		-0.689986	-0.275728	0.583676	-0.327438	-0.597999	-80.409719	51.279452
01004		-0.689995	-0.275712	0.583665	-0.327452	-0.606337	-80.407170	51.287760
01005		-0.689982	-0.275686	0.583677	-0.327482	-0.635947	-80.407026	51.317728
01006		-0.689984	-0.275677	0.583681	-0.327476	-0.638823	-80.407010	51.319254
01007		-0.689986	-0.275689	0.583659	-0.327500	-0.637103	-80.404873	51.320863
01008		-0.689980	-0.275720	0.583628	-0.327543	-0.633650	-80.402587	51.324174
01009		-0.689987	-0.275734	0.583590	-0.327584	-0.633219	-80.398342	51.328819
01010		-0.690007	-0.275722	0.583546	-0.327631	-0.643909	-80.391562	51.342972
01011		-0.690050	-0.275679	0.583505	-0.327648	-0.652938	-80.383252	51.350053
01012		-0.690094	-0.275632	0.583448	-0.327698	-0.673460	-80.372396	51.371161
01013		-0.690145	-0.275571	0.583404	-0.327720	-0.690867	-80.362574	51.385523
01014		-0.690156	-0.275572	0.583366	-0.327764	-0.696676	-80.357437	51.395553
01015		-0.690160	-0.275546	0.583353	-0.327800	-0.719839	-80.353998	51.419764
01016		-0.690170	-0.275527	0.583337	-0.327824	-0.732612	-80.350577	51.433125
01017		-0.690173	-0.275536	0.583320	-0.327840	-0.730287	-80.348862	51.433163
01018		-0.690184	-0.275541	0.583296	-0.327856	-0.726724	-80.345901	51.431555
01019		-0.690186	-0.275550	0.583269	-0.327890	-0.729135	-80.342864	51.437991
01020		-0.690191	-0.275612	0.583202	-0.327949	-0.707115	-80.337666	51.426986
01021		-0.690160	-0.275677	0.583161	-0.328031	-0.705884	-80.336340	51.439098
01022		-0.690145	-0.275748	0.583093	-0.328123	-0.696019	-80.331770	51.444132
01023		-0.690119	-0.275811	0.583055	-0.328193	-0.690344	-80.330589	51.450483
01024		-0.690085	-0.275866	0.583029	-0.328266	-0.694216	-80.330569	51.465769
01025		-0.690062	-0.275890	0.583009	-0.328330	-0.708331	-80.329359	51.487898
01026		-0.690040	-0.275909	0.582998	-0.328378	-0.720004	-80.329052	51.505650
01027		-0.690011	-0.275926	0.582984	-0.328449	-0.742035	-80.328282	51.535611
01028		-0.690000	-0.275980	0.582932	-0.328520	-0.735444	-80.324620	51.540387
01029		-0.689971	-0.276049	0.582878	-0.328618	-0.735210	-80.321766	51.555316
01030		-0.689960	-0.276133	0.582798	-0.328715	-0.717679	-80.316356	51.554259
01031		-0.689932	-0.276208	0.582730	-0.328830	-0.717873	-80.311983	51.571732
01032		-0.689915	-0.276287	0.582662	-0.328919	-0.703704	-80.307819	51.572910
01033		-0.689905	-0.276331	0.582610	-0.328995	-0.703214	-80.303748	51.583418
01034		-0.689903	-0.276340	0.582590	-0.329028	-0.707486	-80.301494	51.591553
01035		-0.689898	-0.276331	0.582587	-0.329051	-0.721315	-80.300572	51.606676
01036		-0.689905	-0.276324	0.582566	-0.329080	-0.730033	-80.297117	51.617461
01037		-0.689919	-0.276307	0.582530	-0.329129	-0.746153	-80.291123	51.636724
01038		-0.689938	-0.276299	0.582490	-0.329167	-0.752007	-80.285191	51.645447
01039		-0.689946	-0.276300	0.582465	-0.329192	-0.754194	-80.281913	51.650191
01040		-0.689965	-0.276291	0.582425	-0.329230	-0.760030	-80.275979	51.658899
01041		-0.689987	-0.276291	0.582379	-0.329266	-0.759860	-80.269679	51.662152
01042		-0.690007	-0.276306	0.582331	-0.329295	-0.749486	-80.264210	51.656017
01043		-0.690023	-0.276332	0.582288	-0.329316	-0.732249	-80.260082	51.643200
01044		-0.690043	-0.276355	0.582259	-0.329307	-0.708252	-80.257671	51.620554
01045		-0.690064	-0.276333	0.582232	-0.329328	-0.715708	-80.252593	51.628134
01046		-0.690087	-0.276283	0.582245	-0.329300	-0.726887	-80.251070	51.632297
01047		-0.690103	-0.276256	0.582243	-0.329292	-0.732518	-80.249084	51.634963
01048		-0.690112	-0.276241	0.582231	-0.329306	-0.740622	-80.246520	51.643056
01049		-0.690107	-0.276236	0.582233	-0.329319	-0.749488	-80.246424	51.652647
01050		-0.690100	-0.276244	0.582238	-0.329318	-0.747908	-80.247606	51.651527
01051		-0.690099	-0.276247	0.582243	-0.329309	-0.744275	-80.248444	51.647381
01052		-0.690104	-0.276226	0.582253	-0.329298	-0.751029	-80.248450	51.651331
01053		-0.690129	-0.276185	0.582255	-0.329275	-0.756635	-80.246100	51.651267
01054		-0.690155	-0.276147	0.582256	-0.329252	-0.760256	-80.243749	51.649432
01055		-0.690181	-0.276123	0.582244	-0.329238	-0.758354	-80.240675	51.644199
01056		-0.690206	-0.276092	0.582245	-0.329212	-0.757805	-80.238747	51.638619
01057		-0.690234	-0.276061	0.582243	-0.329182	-0.754907	-80.236525	51.630321
01058		-0.690272	-0.276019	0.582240	-0.329141	-0.750707	-80.233465	51.618769
01059		-0.690306	-0.275970	0.582237	-0.329118	-0.757113	-80.229875	51.618761
01060		-0.690341	-0.275918	0.582252	-0.329062	-0.756020	-80.228515	51.608139
01061		-0.690372	-0.275871	0.582251	-0.329036	-0.761604	-80.225436	51.607229
01062		-0.690398	-0.275860	0.582239	-0.329012	-0.749365	-80.223102	51.591944
01063		-0.690419	-0.275834	0.582234	-0.328999	-0.750905	-80.220812	51.590035
01064		-0.690438	-0.275829	0.582228	-0.328973	-0.738145	-80.219703	51.574561
01065		-0.690445	-0.275840	0.582222	-0.328962	-0.726484	-80.219505	51.562899
01066		-0.690459	-0.275830	0.582218	-0.328948	-0.721795	-80.218327	51.556019
01067		-0.690481	-0.275824	0.582181	-0.328971	-0.720884	-80.212966	51.556960
01068		-0.690506	-0.275817	0.582154	-0.328973	-0.713639	-80.208861	51.549369
01069		-0.690520	-0.275802	0.582136	-0.328987	-0.719935	-80.205511	51.555763
01070		-0.690530	-0.275783	0.582120	-0.329011	-0.732429	-80.202073	51.568865
01071		-0.690542	-0.275749	0.582125	-0.329007	-0.745707	-80.200470	51.578739
01072		-0.690539	-0.275734	0.582122	-0.329031	-0.761291	-80.199059	51.595170
01073		-0.690536	-0.275719	0.582128	-0.329039	-0.773608	-80.198958	51.606814
01074		-0.690531	-0.275715	0.582129	-0.329050	-0.780613	-80.198842	51.614475
01075		-0.690524	-0.275715	0.582126	-0.329071	-0.789581	-80.198313	51.625389
01076		-0.690519	-0.275711	0.582127	-0.329082	-0.796584	-80.198195	51.633049
01077		-0.690535	-0.275717	0.582106	-0.329082	-0.786256	-80.195760	51.623307
01078		-0.690535	-0.275687	0.582113	-0.329092	-0.805448	-80.194821	51.640839
01079		-0.690547	-0.275653	0.582118	-0.329088	-0.818508	-80.193195	51.650472
01080		-0.690569	-0.275606	0.582106	-0.329103	-0.839229	-80.188577	51.668535
01081		-0.690580	-0.275569	0.582106	-0.329111	-0.856775	-80.186121	51.683543
01082		-0.690593	-0.275536	0.582100	-0.329122	-0.872815	-80.183151	51.697683
01083		-0.690595	-0.275520	0.582101	-0.329127	-0.882210	-80.182295	51.706206
01084		-0.690582	-0.275506	0.582126	-0.329125	-0.895964	-80.184677	51.718348
01085		-0.690575	-0.275505	0.582132	-0.329128	-0.900224	-80.185459	51.722841
01086		-0.690558	-0.275509	0.582160	-0.329111	-0.901300	-80.189565	51.722541
01087		-0.690570	-0.275498	0.582167	-0.329081	-0.893981	-80.189790	51.711591
01088		-0.690609	-0.275453	0.582150	-0.329068	-0.898829	-80.184540	51.711361
01089		-0.690648	-0.275404	0.582134	-0.329056	-0.905302	-80.179263	51.712566
01090		-0.690704	-0.275359	0.582092	-0.329051	-0.903628	-80.170734	51.706709
01091		-0.690745	-0.275319	0.582054	-0.329065	-0.911282	-80.162936	51.712385
01092		-0.690787	-0.275286	0.582015	-0.329075	-0.913243	-80.155532	51.712486
01093		-0.690823	-0.275248	0.581984	-0.329085	-0.920692	-80.148916	51.717683
01094		-0.690853	-0.275215	0.581963	-0.329085	-0.925522	-80.143989	51.719853
01095		-0.690871	-0.275178	0.581947	-0.329107	-0.944005	-80.139353	51.737143
01096		-0.690894	-0.275124	0.581946	-0.329107	-0.964068	-80.135628	51.752464
01097		-0.690921	-0.275068	0.581942	-0.329102	-0.981538	-80.131562	51.764656
01098		-0.690950	-0.275015	0.581944	-0.329083	-0.993340	-80.128362	51.770152
01099		-0.690977	-0.274965	0.581951	-0.329056	-1.002349	-80.126035	51.772268
01100		-0.690990	-0.274935	0.581959	-0.329040	-1.009300	-80.125262	51.775045
01101		-0.690999	-0.274909	0.581953	-0.329052	-1.022721	-80.122753	51.787350
01102		-0.691008	-0.274897	0.581946	-0.329056	-1.026286	-80.121053	51.790294
01103		-0.691009	-0.274913	0.581914	-0.329099	-1.028637	-80.117579	51.798072
01104		-0.690994	-0.274930	0.581901	-0.329139	-1.036071	-80.116875	51.810668
01105		-0.690980	-0.274959	0.581876	-0.329187	-1.037756	-80.115396	51.819411
01106		-0.690957	-0.274990	0.581859	-0.329241	-1.045183	-80.115014	51.834420
01107		-0.690934	-0.274988	0.581857	-0.329294	-1.070564	-80.114602	51.864455
01108		-0.690918	-0.275009	0.581839	-0.329342	-1.078220	-80.113443	51.878319
01109		-0.690917	-0.275006	0.581814	-0.329390	-1.092707	-80.109906	51.896997
01110		-0.690915	-0.274957	0.581825	-0.329416	-1.127892	-80.108013	51.930196
01111		-0.690938	-0.274924	0.581797	-0.329444	-1.142911	-80.102104	51.945027
01112		-0.690955	-0.274899	0.581774	-0.329470	-1.155560	-80.097416	51.957957
01113		-0.690976	-0.274878	0.581741	-0.329504	-1.166530	-80.091485	51.970337
01114		-0.691001	-0.274868	0.581699	-0.329533	-1.168026	-80.085176	51.973771
01115		-0.691006	-0.274838	0.581701	-0.329544	-1.185242	-80.083443	51.989420
01116		-0.691021	-0.274821	0.581677	-0.329567	-1.193756	-80.079181	51.998643
01117		-0.691037	-0.274797	0.581670	-0.329565	-1.199307	-80.076693	52.001978
01118		-0.691069	-0.274730	0.581673	-0.329551	-1.219157	-80.072633	52.014669
01119		-0.691091	-0.274676	0.581668	-0.329559	-1.241222	-80.068450	52.032793
01120		-0.691116	-0.274666	0.581626	-0.329588	-1.242662	-80.062139	52.036171
01121		-0.691138	-0.274662	0.581575	-0.329635	-1.246245	-80.054940	52.043882
01122		-0.691149	-0.274667	0.581541	-0.329668	-1.247002	-80.050628	52.048288
01123		-0.691149	-0.274662	0.581517	-0.329714	-1.260965	-80.047001	52.066132
01124		-0.691153	-0.274649	0.581516	-0.329719	-1.268086	-80.046094	52.072543
01125		-0.691146	-0.274644	0.581512	-0.329745	-1.280667	-80.045128	52.087068
01126		-0.691160	-0.274603	0.581506	-0.329759	-1.300425	-80.041705	52.104505
01127		-0.691170	-0.274577	0.581500	-0.329771	-1.313493	-80.039147	52.116391
01128		-0.691174	-0.274557	0.581491	-0.329796	-1.329161	-80.036472	52.132584
01129		-0.691190	-0.274531	0.581469	-0.329824	-1.343630	-80.031822	52.147429
01130		-0.691205	-0.274510	0.581441	-0.329857	-1.356288	-80.026670	52.161417
01131		-0.691221	-0.274511	0.581406	-0.329884	-1.355233	-80.022070	52.163149
01132		-0.691219	-0.274493	0.581408	-0.329900	-1.370223	-80.021073	52.177955
01133		-0.691227	-0.274479	0.581402	-0.329905	-1.375365	-80.019351	52.182366
01134		-0.691242	-0.274466	0.581384	-0.329918	-1.379463	-80.015966	52.186559
01135		-0.691263	-0.274410	0.581387	-0.329916	-1.400607	-80.012760	52.202626
01136		-0.691299	-0.274348	0.581377	-0.329909	-1.416851	-80.007443	52.212848
01137		-0.691335	-0.274278	0.581379	-0.329889	-1.434382	-80.003073	52.222553
01138		-0.691387	-0.274221	0.581349	-0.329880	-1.439719	-79.995369	52.222148
01139		-0.691430	-0.274181	0.581316	-0.329881	-1.442637	-79.988367	52.221846
01140		-0.691458	-0.274186	0.581277	-0.329886	-1.427763	-79.983457	52.208202
01141		-0.691487	-0.274180	0.581244	-0.329889	-1.418560	-79.978601	52.198871
01142		-0.691507	-0.274172	0.581223	-0.329891	-1.414773	-79.975304	52.194658
01143		-0.691524	-0.274167	0.581198	-0.329904	-1.412847	-79.971587	52.193659
01144		-0.691538	-0.274129	0.581207	-0.329890	-1.423752	-79.970381	52.199968
01145		-0.691560	-0.274072	0.581216	-0.329873	-1.440790	-79.967971	52.210413
01146		-0.691577	-0.274020	0.581226	-0.329864	-1.459750	-79.965901	52.223924
01147		-0.691599	-0.273964	0.581226	-0.329865	-1.480901	-79.962128	52.240264
01148		-0.691610	-0.273942	0.581224	-0.329863	-1.488164	-79.960444	52.245444
01149		-0.691606	-0.273926	0.581231	-0.329872	-1.500565	-79.960360	52.257241
01150		-0.691618	-0.273927	0.581212	-0.329880	-1.496549	-79.957835	52.254176
01151		-0.691634	-0.273952	0.581173	-0.329894	-1.479228	-79.954219	52.240474
01152		-0.691639	-0.273989	0.581142	-0.329908	-1.459516	-79.952511	52.225509
01153		-0.691640	-0.274034	0.581101	-0.329940	-1.441969	-79.949922	52.214930
01154		-0.691634	-0.274065	0.581079	-0.329966	-1.433712	-79.948916	52.211851
01155		-0.691635	-0.274081	0.581055	-0.329993	-1.430920	-79.946720	52.212978
01156		-0.691650	-0.274071	0.581041	-0.329996	-1.430740	-79.944217	52.212281
01157		-0.691654	-0.274045	0.581028	-0.330032	-1.452369	-79.940658	52.234956
01158		-0.691651	-0.274030	0.581015	-0.330073	-1.471836	-79.937855	52.256950
01159		-0.691639	-0.274033	0.581018	-0.330090	-1.480424	-79.938476	52.267246
01160		-0.691619	-0.274044	0.581017	-0.330123	-1.491039	-79.938988	52.281908
01161		-0.691582	-0.274077	0.581027	-0.330156	-1.498179	-79.942423	52.294800
01162		-0.691544	-0.274126	0.581022	-0.330205	-1.500534	-79.944885	52.305857
01163		-0.691508	-0.274180	0.581006	-0.330263	-1.501199	-79.946125	52.316554
01164		-0.691504	-0.274232	0.580961	-0.330308	-1.485851	-79.943387	52.310046
01165		-0.691514	-0.274232	0.580922	-0.330355	-1.492115	-79.938168	52.320757
01166		-0.691562	-0.274194	0.580867	-0.330383	-1.498287	-79.928186	52.326410
01167		-0.691592	-0.274156	0.580833	-0.330413	-1.513307	-79.921056	52.341041
01168		-0.691620	-0.274131	0.580782	-0.330465	-1.526833	-79.912519	52.357330
01169		-0.691646	-0.274136	0.580723	-0.330508	-1.522615	-79.904951	52.357733
01170		-0.691656	-0.274172	0.580661	-0.330566	-1.512265	-79.898868	52.356179
01171		-0.691653	-0.274236	0.580594	-0.330637	-1.495568	-79.893990	52.351792
01172		-0.691641	-0.274269	0.580563	-0.330689	-1.495459	-79.891970	52.359490
01173		-0.691654	-0.274289	0.580522	-0.330719	-1.485935	-79.887694	52.354589
01174		-0.691648	-0.274317	0.580495	-0.330755	-1.481851	-79.885791	52.356317
01175		-0.691659	-0.274321	0.580457	-0.330795	-1.484496	-79.880978	52.363237
01176		-0.691665	-0.274321	0.580425	-0.330840	-1.492778	-79.876550	52.375717
01177		-0.691679	-0.274324	0.580369	-0.330904	-1.499882	-79.869229	52.389200
01178		-0.691708	-0.274327	0.580305	-0.330955	-1.497910	-79.860733	52.392422
01179		-0.691729	-0.274355	0.580235	-0.331010	-1.485781	-79.853107	52.388096
01180		-0.691733	-0.274363	0.580192	-0.331070	-1.494375	-79.847761	52.402983
01181		-0.691742	-0.274399	0.580150	-0.331096	-1.476908	-79.844385	52.391268
01182		-0.691747	-0.274437	0.580118	-0.331110	-1.457319	-79.842669	52.376450
01183		-0.691749	-0.274448	0.580100	-0.331129	-1.454689	-79.840949	52.376555
01184		-0.691777	-0.274426	0.580083	-0.331117	-1.450921	-79.837335	52.369950
01185		-0.691823	-0.274373	0.580067	-0.331093	-1.453550	-79.831704	52.365869
01186		-0.691879	-0.274324	0.580030	-0.331080	-1.451173	-79.823640	52.358274
01187		-0.691931	-0.274266	0.580001	-0.331072	-1.457684	-79.815919	52.359176
01188		-0.691983	-0.274209	0.579961	-0.331080	-1.467173	-79.806869	52.364591
01189		-0.692011	-0.274177	0.579940	-0.331084	-1.472864	-79.801949	52.368026
01190		-0.692063	-0.274124	0.579905	-0.331082	-1.478197	-79.793788	52.368666
01191		-0.692103	-0.274070	0.579885	-0.331078	-1.488421	-79.787608	52.374001
01192		-0.692135	-0.274030	0.579884	-0.331046	-1.488121	-79.784934	52.367299
01193		-0.692164	-0.273960	0.579892	-0.331029	-1.508880	-79.781397	52.380339
01194		-0.692197	-0.273885	0.579905	-0.331000	-1.527800	-79.778242	52.390006
01195		-0.692243	-0.273798	0.579914	-0.330958	-1.544320	-79.773947	52.395075
01196		-0.692294	-0.273720	0.579917	-0.330910	-1.552165	-79.769326	52.391859
01197		-0.692328	-0.273641	0.579932	-0.330880	-1.572982	-79.766162	52.403016
01198		-0.692378	-0.273568	0.579919	-0.330858	-1.585257	-79.759733	52.406940
01199		-0.692423	-0.273535	0.579884	-0.330852	-1.580707	-79.752956	52.399190
01200		-0.692456	-0.273519	0.579856	-0.330847	-1.573555	-79.748091	52.390343
01201		-0.692492	-0.273504	0.579821	-0.330844	-1.564431	-79.742454	52.379767
01202		-0.692522	-0.273475	0.579815	-0.330817	-1.560364	-79.739756	52.370772
01203		-0.692543	-0.273422	0.579822	-0.330804	-1.576439	-79.737375	52.381031
01204		-0.692572	-0.273393	0.579806	-0.330794	-1.576635	-79.733327	52.377965
01205		-0.692602	-0.273354	0.579795	-0.330783	-1.582050	-79.729332	52.378968
01206		-0.692635	-0.273306	0.579775	-0.330789	-1.594203	-79.723524	52.387622
01207		-0.692679	-0.273262	0.579767	-0.330747	-1.588234	-79.719688	52.374068
01208		-0.692722	-0.273198	0.579766	-0.330713	-1.596011	-79.715378	52.373209
01209		-0.692764	-0.273148	0.579742	-0.330707	-1.601983	-79.708943	52.374361
01210		-0.692802	-0.273137	0.579701	-0.330708	-1.591465	-79.702824	52.363290
01211		-0.692823	-0.273139	0.579664	-0.330729	-1.586003	-79.697863	52.359998
01212		-0.692829	-0.273138	0.579651	-0.330738	-1.585576	-79.696121	52.360448
01213		-0.692841	-0.273137	0.579633	-0.330748	-1.583212	-79.693587	52.358978
01214		-0.692860	-0.273102	0.579625	-0.330750	-1.594593	-79.690233	52.367528
01215		-0.692902	-0.273031	0.579621	-0.330727	-1.608291	-79.685042	52.372968
01216		-0.692943	-0.272974	0.579589	-0.330744	-1.624820	-79.677111	52.386285
01217		-0.692981	-0.272945	0.579535	-0.330782	-1.632049	-79.667942	52.394767
01218		-0.693014	-0.272926	0.579482	-0.330823	-1.637432	-79.659477	52.402408
01219		-0.693050	-0.272921	0.579428	-0.330847	-1.629311	-79.651964	52.396331
01220		-0.693065	-0.272904	0.579404	-0.330870	-1.637196	-79.647665	52.404955
01221		-0.693057	-0.272910	0.579400	-0.330888	-1.641574	-79.647478	52.411468
01222		-0.693051	-0.272918	0.579396	-0.330904	-1.644474	-79.647296	52.416533
01223		-0.693027	-0.272951	0.579393	-0.330932	-1.644113	-79.649033	52.421561
01224		-0.692998	-0.272979	0.579402	-0.330951	-1.646089	-79.652074	52.427751
01225		-0.692973	-0.273013	0.579409	-0.330963	-1.641793	-79.655223	52.427368
01226		-0.692920	-0.273053	0.579450	-0.330971	-1.646095	-79.663198	52.435744
01227		-0.692845	-0.273138	0.579496	-0.330977	-1.635675	-79.674922	52.432995
01228		-0.692759	-0.273196	0.579564	-0.330991	-1.646175	-79.687704	52.449432
01229		-0.692686	-0.273240	0.579633	-0.330986	-1.654275	-79.699857	52.460511
01230		-0.692608	-0.273258	0.579728	-0.330969	-1.675835	-79.713628	52.481492
01231		-0.692544	-0.273234	0.579824	-0.330954	-1.714676	-79.724818	52.516372
01232		-0.692474	-0.273211	0.579925	-0.330941	-1.755854	-79.736864	52.553784
01233		-0.692400	-0.273174	0.580039	-0.330926	-1.805969	-79.749720	52.598720
01234		-0.692314	-0.273146	0.580181	-0.330880	-1.849672	-79.766838	52.635048
01235		-0.692212	-0.273112	0.580344	-0.330838	-1.905824	-79.786298	52.683533
01236		-0.692094	-0.273071	0.580541	-0.330773	-1.967150	-79.809952	52.734219
01237		-0.691991	-0.273046	0.580718	-0.330699	-2.011271	-79.832025	52.768502
01238		-0.691864	-0.273052	0.580917	-0.330609	-2.045174	-79.859190	52.793730
01239		-0.691751	-0.273044	0.581115	-0.330505	-2.077040	-79.885205	52.814443
01240		-0.691643	-0.273013	0.581337	-0.330364	-2.110800	-79.913127	52.831546
01241		-0.691553	-0.272951	0.581563	-0.330208	-2.150008	-79.939490	52.850076
01242		-0.691478	-0.272871	0.581786	-0.330038	-2.188486	-79.964356	52.864910
01243		-0.691405	-0.272779	0.582011	-0.329869	-2.232719	-79.988717	52.884725
01244		-0.691310	-0.272716	0.582253	-0.329694	-2.270528	-80.017246	52.899918
01245		-0.691234	-0.272691	0.582439	-0.329544	-2.283980	-80.040925	52.896721
01246		-0.691177	-0.272667	0.582601	-0.329398	-2.288875	-80.061308	52.885399
01247		-0.691136	-0.272617	0.582748	-0.329266	-2.304338	-80.077848	52.883819
01248		-0.691106	-0.272569	0.582874	-0.329143	-2.314774	-80.091966	52.878355
01249		-0.691084	-0.272526	0.582981	-0.329036	-2.322999	-80.103670	52.872594
01250		-0.691069	-0.272523	0.583049	-0.328951	-2.311302	-80.112771	52.852486
01251		-0.691074	-0.272523	0.583076	-0.328893	-2.294697	-80.116497	52.830576
01252		-0.691067	-0.272561	0.583082	-0.328864	-2.268952	-80.120004	52.805474
01253		-0.691062	-0.272587	0.583095	-0.328831	-2.248606	-80.123492	52.784345
01254		-0.691077	-0.272573	0.583096	-0.328808	-2.243578	-80.122807	52.776094
01255		-0.691081	-0.272588	0.583095	-0.328790	-2.228653	-80.123674	52.760802
01256		-0.691099	-0.272591	0.583079	-0.328779	-2.216153	-80.121723	52.747688
01257		-0.691123	-0.272585	0.583057	-0.328771	-2.205648	-80.118492	52.736056
01258		-0.691144	-0.272604	0.583023	-0.328773	-2.185693	-80.115274	52.718094
01259		-0.691165	-0.272639	0.582972	-0.328789	-2.159831	-80.110771	52.697102
01260		-0.691159	-0.272671	0.582969	-0.328780	-2.142503	-80.112469	52.681649
01261		-0.691165	-0.272704	0.582940	-0.328793	-2.124222	-80.110705	52.667600
01262		-0.691140	-0.272745	0.582937	-0.328817	-2.118759	-80.112921	52.667916
01263		-0.691109	-0.272816	0.582948	-0.328804	-2.090478	-80.119127	52.644625
01264		-0.691075	-0.272871	0.582960	-0.328806	-2.076205	-80.124361	52.635244
01265		-0.691047	-0.272901	0.582994	-0.328782	-2.066937	-80.130946	52.626191
01266		-0.691024	-0.272931	0.583016	-0.328765	-2.056525	-80.135897	52.616771
01267		-0.691027	-0.272916	0.583036	-0.328736	-2.056154	-80.137609	52.612378
01268		-0.691042	-0.272906	0.583022	-0.328739	-2.055701	-80.135101	52.611407
01269		-0.691078	-0.272869	0.583030	-0.328679	-2.044093	-80.133838	52.591137
01270		-0.691120	-0.272839	0.583035	-0.328607	-2.023086	-80.132759	52.561009
01271		-0.691165	-0.272756	0.583088	-0.328485	-2.018078	-80.134818	52.537505
01272		-0.691223	-0.272675	0.583139	-0.328341	-1.999741	-80.136672	52.498839
01273		-0.691286	-0.272599	0.583184	-0.328191	-1.975196	-80.138066	52.453951
01274		-0.691345	-0.272542	0.583216	-0.328056	-1.945294	-80.139078	52.406763
01275		-0.691418	-0.272497	0.583219	-0.327936	-1.906336	-80.136804	52.353020
01276		-0.691482	-0.272442	0.583225	-0.327835	-1.881589	-80.134307	52.314395
01277		-0.691560	-0.272378	0.583224	-0.327728	-1.854356	-80.130137	52.271872
01278		-0.691632	-0.272310	0.583224	-0.327631	-1.834086	-80.125973	52.236957
01279		-0.691701	-0.272229	0.583243	-0.327520	-1.819260	-80.123508	52.205011
01280		-0.691768	-0.272159	0.583259	-0.327407	-1.798280	-80.121481	52.167641
01281		-0.691827	-0.272067	0.583296	-0.327294	-1.794053	-80.120574	52.145001
01282		-0.691870	-0.272002	0.583334	-0.327189	-1.784017	-80.121681	52.119687
01283		-0.691909	-0.271953	0.583347	-0.327123	-1.776231	-80.120399	52.101633
01284		-0.691919	-0.271938	0.583374	-0.327066	-1.766015	-80.123189	52.084795
01285		-0.691916	-0.271960	0.583388	-0.327030	-1.745872	-80.126614	52.063330
01286		-0.691912	-0.272015	0.583387	-0.326995	-1.707988	-80.130137	52.027049
01287		-0.691869	-0.272079	0.583401	-0.327007	-1.694692	-80.136102	52.020347
01288		-0.691850	-0.272149	0.583387	-0.327012	-1.665134	-80.138908	51.997426
01289		-0.691835	-0.272191	0.583375	-0.327031	-1.652970	-80.139952	51.990695
01290		-0.691818	-0.272227	0.583365	-0.327056	-1.647762	-80.140929	51.990927
01291		-0.691796	-0.272276	0.583346	-0.327096	-1.640437	-80.141387	51.991576
01292		-0.691760	-0.272373	0.583315	-0.327147	-1.615325	-80.143449	51.979613
01293		-0.691708	-0.272485	0.583281	-0.327222	-1.595414	-80.146116	51.976479
01294		-0.691633	-0.272633	0.583241	-0.327329	-1.573962	-80.150186	51.977798
01295		-0.691555	-0.272794	0.583201	-0.327431	-1.545886	-80.155054	51.973094
01296		-0.691489	-0.272929	0.583155	-0.327542	-1.528883	-80.157461	51.978102
01297		-0.691420	-0.273060	0.583114	-0.327648	-1.513583	-80.160380	51.984082
01298		-0.691366	-0.273164	0.583088	-0.327724	-1.500076	-80.163425	51.986603
01299		-0.691321	-0.273242	0.583071	-0.327784	-1.491984	-80.166173	51.990734
01300		-0.691258	-0.273299	0.583102	-0.327814	-1.496455	-80.173952	52.002793
01301		-0.691216	-0.273367	0.583110	-0.327833	-1.482690	-80.179383	51.996626
01302		-0.691162	-0.273467	0.583108	-0.327866	-1.459924	-80.185582	51.985539
01303		-0.691098	-0.273551	0.583136	-0.327881	-1.445690	-80.194758	51.979783
01304		-0.691042	-0.273634	0.583151	-0.327902	-1.430319	-80.202237	51.973483
01305		-0.690987	-0.273736	0.583155	-0.327927	-1.404658	-80.209317	51.959063
01306		-0.690951	-0.273802	0.583151	-0.327953	-1.390461	-80.213123	51.952918
01307		-0.690919	-0.273851	0.583169	-0.327948	-1.376617	-80.218683	51.942797
01308		-0.690922	-0.273872	0.583165	-0.327933	-1.359113	-80.219564	51.925804
01309		-0.690924	-0.273865	0.583180	-0.327906	-1.354654	-80.221195	51.918236
01310		-0.690921	-0.273858	0.583196	-0.327891	-1.356804	-80.222836	51.918376
01311		-0.690903	-0.273885	0.583210	-0.327882	-1.347661	-80.226580	51.910607
01312		-0.690892	-0.273914	0.583214	-0.327873	-1.333648	-80.229014	51.898402
01313		-0.690873	-0.273953	0.583226	-0.327860	-1.317313	-80.233116	51.884195
01314		-0.690845	-0.274009	0.583231	-0.327862	-1.298705	-80.237502	51.870601
01315		-0.690827	-0.274040	0.583247	-0.327846	-1.285509	-80.241610	51.858573
01316		-0.690836	-0.274059	0.583231	-0.327840	-1.268571	-80.240801	51.842852
01317		-0.690871	-0.274030	0.583209	-0.327830	-1.266248	-80.235918	51.837272
01318		-0.690917	-0.273979	0.583185	-0.327818	-1.271129	-80.229461	51.836706
01319		-0.690963	-0.273951	0.583150	-0.327805	-1.261589	-80.222981	51.823801
01320		-0.691001	-0.273940	0.583120	-0.327789	-1.245973	-80.218202	51.805946
01321		-0.691023	-0.273944	0.583107	-0.327762	-1.226509	-80.216749	51.784482
01322		-0.691037	-0.273938	0.583107	-0.327738	-1.217288	-80.216464	51.772480
01323		-0.691039	-0.273950	0.583118	-0.327703	-1.200279	-80.218738	51.753399
01324		-0.691049	-0.273935	0.583125	-0.327682	-1.198912	-80.218820	51.748728
01325		-0.691048	-0.273944	0.583140	-0.327652	-1.186391	-80.221383	51.734196
01326		-0.691052	-0.273955	0.583141	-0.327631	-1.172791	-80.222284	51.719636
01327		-0.691064	-0.273980	0.583113	-0.327634	-1.153593	-80.220205	51.703049
01328		-0.691074	-0.274023	0.583080	-0.327637	-1.125106	-80.218522	51.678830
01329		-0.691055	-0.274117	0.583049	-0.327653	-1.084961	-80.220403	51.648484
01330		-0.691039	-0.274231	0.583005	-0.327670	-1.031522	-80.221867	51.606777
01331		-0.691026	-0.274357	0.582929	-0.327728	-0.980894	-80.219777	51.572785
01332		-0.691005	-0.274553	0.582812	-0.327815	-0.901613	-80.216679	51.519091
01333		-0.690950	-0.274799	0.582694	-0.327936	-0.818766	-80.216607	51.469234
01334		-0.690927	-0.275152	0.582455	-0.328113	-0.674680	-80.207158	51.373152
01335		-0.690923	-0.275530	0.582166	-0.328317	-0.514788	-80.192463	51.266304
01336		-0.690929	-0.275935	0.581832	-0.328554	-0.343450	-80.173536	51.153524
01337		-0.690909	-0.276347	0.581500	-0.328839	-0.193564	-80.155071	51.067129
01338		-0.690835	-0.276780	0.581215	-0.329134	-0.059189	-80.144489	50.998834
01339		-0.690714	-0.277238	0.580945	-0.329478	0.055559	-80.137539	50.956588
01340		-0.690521	-0.277708	0.580734	-0.329859	0.135658	-80.139242	50.953131
01341		-0.690282	-0.278147	0.580583	-0.330255	0.174015	-80.147340	50.989709
01342		-0.690040	-0.278513	0.580481	-0.330630	0.174713	-80.157268	51.055458
01343		-0.689788	-0.278780	0.580423	-0.331034	0.106626	-80.166717	51.183656
01344		-0.689519	-0.278961	0.580440	-0.331412	-0.010434	-80.180800	51.350567
01345		-0.689242	-0.279059	0.580534	-0.331740	-0.166494	-80.199711	51.544316
01346		-0.688990	-0.279044	0.580684	-0.332014	-0.361964	-80.218939	51.762348
01347		-0.688752	-0.278955	0.580899	-0.332207	-0.573103	-80.241911	51.981936
01348		-0.688537	-0.278754	0.581202	-0.332292	-0.810927	-80.269215	52.208096
01349		-0.688357	-0.278501	0.581546	-0.332275	-1.037038	-80.298743	52.408699
01350		-0.688176	-0.278193	0.581976	-0.332153	-1.269402	-80.336295	52.600789
01351		-0.688042	-0.277793	0.582455	-0.331927	-1.507236	-80.374161	52.780492
01352		-0.687945	-0.277331	0.582960	-0.331628	-1.745902	-80.411651	52.949148
01353		-0.687889	-0.276808	0.583475	-0.331274	-1.986710	-80.446595	53.109484
01354		-0.687850	-0.276227	0.584021	-0.330879	-2.244425	-80.481690	53.277756
01355		-0.687805	-0.275606	0.584611	-0.330446	-2.518977	-80.520129	53.455916
01356		-0.687740	-0.274949	0.585280	-0.329946	-2.809612	-80.566825	53.640510
01357		-0.687656	-0.274262	0.586000	-0.329414	-3.121698	-80.618303	53.840943
01358		-0.687542	-0.273639	0.586749	-0.328836	-3.401858	-80.678161	54.010655
01359		-0.687414	-0.273081	0.587497	-0.328231	-3.645654	-80.742441	54.147484
01360		-0.687315	-0.272529	0.588211	-0.327619	-3.871486	-80.802667	54.266391
01361		-0.687216	-0.272001	0.588906	-0.327016	-4.086247	-80.862006	54.377355
01362		-0.687125	-0.271429	0.589603	-0.326428	-4.329049	-80.918409	54.513891
01363		-0.687014	-0.270828	0.590329	-0.325846	-4.603032	-80.976839	54.679574
01364		-0.686876	-0.270224	0.591077	-0.325281	-4.902102	-81.037797	54.871600
01365		-0.686751	-0.269613	0.591816	-0.324709	-5.198544	-81.097024	55.059801
01366		-0.686618	-0.269003	0.592565	-0.324129	-5.498893	-81.157703	55.251350
01367		-0.686488	-0.268401	0.593340	-0.323486	-5.779334	-81.222701	55.417906
01368		-0.686387	-0.267773	0.594165	-0.322706	-6.025855	-81.293736	55.535933
01369		-0.686320	-0.267140	0.595007	-0.321819	-6.227710	-81.367721	55.599291
01370		-0.686333	-0.266483	0.595811	-0.320847	-6.375617	-81.436083	55.599124
01371		-0.686413	-0.265826	0.596568	-0.319814	-6.466438	-81.498982	55.536887
01372		-0.686562	-0.265116	0.597304	-0.318708	-6.528090	-81.556415	55.434377
01373		-0.686796	-0.264343	0.598012	-0.317514	-6.552327	-81.607008	55.281429
01374		-0.687120	-0.263500	0.598680	-0.316253	-6.545308	-81.648470	55.085557
01375		-0.687493	-0.262593	0.599296	-0.315028	-6.557575	-81.678709	54.906835
01376		-0.687934	-0.261640	0.599871	-0.313761	-6.544131	-81.700990	54.694965
01377		-0.688475	-0.260611	0.600395	-0.312426	-6.497143	-81.712446	54.437340
01378		-0.689133	-0.259480	0.600903	-0.310937	-6.397932	-81.716641	54.105250
01379		-0.689924	-0.258261	0.601388	-0.309254	-6.215146	-81.714044	53.664895
01380		-0.690893	-0.256921	0.601823	-0.307354	-5.937779	-81.698887	53.100692
01381		-0.691923	-0.255569	0.602279	-0.305265	-5.573739	-81.687440	52.432108
01382		-0.693019	-0.254279	0.602687	-0.303042	-5.086972	-81.674866	51.634848
01383		-0.694179	-0.252963	0.603078	-0.300704	-4.543964	-81.658681	50.769329
01384		-0.695351	-0.251610	0.603528	-0.298217	-3.967653	-81.648752	49.854377
01385		-0.696472	-0.250146	0.604147	-0.295567	-3.433922	-81.655394	48.957743
01386		-0.697529	-0.248520	0.604951	-0.292790	-2.989470	-81.677679	48.124976
01387		-0.698517	-0.246739	0.605904	-0.289955	-2.650975	-81.711655	47.379597
01388		-0.699416	-0.244820	0.607008	-0.287093	-2.428717	-81.758939	46.736274
01389		-0.700260	-0.242806	0.608151	-0.284311	-2.313625	-81.806824	46.199480
01390		-0.701163	-0.240665	0.609191	-0.281669	-2.295633	-81.833651	45.762149
01391		-0.701989	-0.238427	0.610297	-0.279107	-2.401489	-81.865153	45.447631
01392		-0.702773	-0.236129	0.611405	-0.276655	-2.603924	-81.894276	45.234816
01393		-0.703469	-0.233789	0.612590	-0.274238	-2.885416	-81.933118	45.100760
01394		-0.704087	-0.231412	0.613851	-0.271841	-3.234675	-81.981463	45.033222
01395		-0.704647	-0.228993	0.615162	-0.269464	-3.645263	-82.035720	45.025674
01396		-0.705258	-0.226582	0.616331	-0.267222	-4.072680	-82.071281	45.048506
01397		-0.705874	-0.224085	0.617478	-0.265046	-4.576911	-82.099519	45.147115
01398		-0.706535	-0.221540	0.618558	-0.262895	-5.094984	-82.116828	45.258274
01399		-0.707294	-0.218980	0.619491	-0.260794	-5.584817	-82.113705	45.345466
01400		-0.708172	-0.216426	0.620255	-0.258719	-6.009527	-82.088546	45.371242
01401		-0.709162	-0.213897	0.620859	-0.256654	-6.353504	-82.043845	45.320248
01402		-0.710244	-0.211400	0.621331	-0.254582	-6.616745	-81.984305	45.191538
01403		-0.711375	-0.208970	0.621721	-0.252467	-6.788103	-81.918911	44.973556
01404		-0.712558	-0.206589	0.622046	-0.250281	-6.869705	-81.849340	44.664537
01405		-0.713700	-0.204282	0.622411	-0.248005	-6.890707	-81.791279	44.293631
01406		-0.714785	-0.202111	0.622802	-0.245663	-6.828024	-81.746393	43.845215
01407		-0.715832	-0.200084	0.623195	-0.243268	-6.673515	-81.711065	43.312901
01408		-0.716828	-0.198212	0.623576	-0.240877	-6.447466	-81.683306	42.722936
01409		-0.717806	-0.196439	0.623900	-0.238568	-6.198594	-81.652911	42.126036
01410		-0.718739	-0.194672	0.624228	-0.236341	-5.998521	-81.623216	41.585689
01411		-0.719499	-0.192976	0.624637	-0.234330	-5.918784	-81.607292	41.190115
01412		-0.720032	-0.191386	0.625175	-0.232554	-5.968586	-81.613731	40.952905
01413		-0.720465	-0.189771	0.625772	-0.230925	-6.136272	-81.626395	40.844065
01414		-0.720720	-0.188051	0.626523	-0.229495	-6.528861	-81.653832	40.968030
01415		-0.720561	-0.186336	0.627640	-0.228341	-7.228214	-81.730012	41.421730
01416		-0.720042	-0.184684	0.629053	-0.227429	-8.176328	-81.847377	42.149410
01417		-0.719349	-0.182847	0.630690	-0.226571	-9.380647	-81.983477	43.121883
01418		-0.718589	-0.180585	0.632563	-0.225572	-10.875921	-82.127610	44.337543
01419		-0.717813	-0.177954	0.634621	-0.224350	-12.582766	-82.275812	45.714757
01420		-0.717122	-0.175236	0.636671	-0.222886	-14.249795	-82.417989	47.024790
01421		-0.716549	-0.172560	0.638686	-0.221045	-15.715386	-82.562469	48.105482
01422		-0.716130	-0.169947	0.640662	-0.218697	-16.877375	-82.715230	48.845345
01423		-0.715887	-0.167479	0.642536	-0.215879	-17.658871	-82.874603	49.177892
01424		-0.715859	-0.165241	0.644174	-0.212794	-18.024846	-83.025445	49.092462
01425		-0.716029	-0.163185	0.645590	-0.209492	-18.014211	-83.165446	48.628319
01426		-0.716394	-0.161183	0.646788	-0.206072	-17.740361	-83.284978	47.896475
01427		-0.716907	-0.159178	0.647771	-0.202728	-17.354803	-83.375552	47.060200
01428		-0.717545	-0.157097	0.648565	-0.199533	-16.969061	-83.434121	46.230713
01429		-0.718333	-0.154790	0.649172	-0.196501	-16.687129	-83.452135	45.500858
01430		-0.719265	-0.152253	0.649620	-0.193574	-16.502587	-83.434661	44.858933
01431		-0.720229	-0.149555	0.650012	-0.190754	-16.454572	-83.399703	44.349783
01432		-0.721132	-0.146821	0.650423	-0.188050	-16.525562	-83.364030	43.966710
01433		-0.721873	-0.144065	0.650974	-0.185413	-16.754746	-83.345799	43.745791
01434		-0.722428	-0.141291	0.651695	-0.182835	-17.154419	-83.349416	43.698933
01435		-0.722811	-0.138437	0.652611	-0.180217	-17.715367	-83.376910	43.803340
01436		-0.723141	-0.135476	0.653598	-0.177549	-18.364305	-83.410423	43.983167
01437		-0.723457	-0.132443	0.654597	-0.174851	-19.056431	-83.443553	44.198036
01438		-0.723814	-0.129446	0.655521	-0.172131	-19.673268	-83.470773	44.339355
01439		-0.724223	-0.126608	0.656340	-0.169379	-20.113113	-83.495308	44.314651
01440		-0.724779	-0.123909	0.656952	-0.166601	-20.313946	-83.502479	44.061048
01441		-0.725537	-0.121372	0.657307	-0.163743	-20.190255	-83.488640	43.490227
01442		-0.726535	-0.119004	0.657367	-0.160790	-19.707580	-83.448554	42.567210
01443		-0.727659	-0.116722	0.657277	-0.157720	-19.012331	-83.396474	41.429641
01444		-0.728804	-0.114602	0.657128	-0.154577	-18.157874	-83.346243	40.140443
01445		-0.729933	-0.112641	0.656948	-0.151424	-17.205015	-83.299318	38.765417
01446		-0.731026	-0.110816	0.656754	-0.148305	-16.206598	-83.254797	37.359143
01447		-0.732068	-0.109086	0.656557	-0.145295	-15.237655	-83.210420	35.999443
01448		-0.733126	-0.107401	0.656280	-0.142433	-14.313430	-83.152680	34.700635
01449		-0.734178	-0.105742	0.655956	-0.139725	-13.468450	-83.085340	33.496287
01450		-0.735231	-0.104094	0.655585	-0.137143	-12.696071	-83.008576	32.376126
01451		-0.736322	-0.102464	0.655128	-0.134679	-11.969870	-82.917505	31.313716
01452		-0.737439	-0.100774	0.654627	-0.132255	-11.311033	-82.816640	30.317179
01453		-0.738542	-0.099094	0.654106	-0.129931	-10.723595	-82.711401	29.401328
01454		-0.739731	-0.097431	0.653451	-0.127698	-10.151737	-82.586025	28.510249
01455		-0.740914	-0.095773	0.652764	-0.125591	-9.663778	-82.454298	27.714121
01456		-0.742048	-0.094136	0.652090	-0.123620	-9.269303	-82.323650	27.024385
01457		-0.743105	-0.092500	0.651470	-0.121765	-8.976711	-82.199486	26.446217
01458		-0.744102	-0.090932	0.650860	-0.120106	-8.770986	-82.077273	25.976598
01459		-0.745002	-0.089419	0.650307	-0.118647	-8.671574	-81.963264	25.634232
01460		-0.745702	-0.088032	0.649923	-0.117382	-8.664066	-81.876153	25.409843
01461		-0.746192	-0.086924	0.649682	-0.116424	-8.708250	-81.815774	25.285054
01462		-0.746466	-0.086112	0.649591	-0.115778	-8.797921	-81.783544	25.255430
01463		-0.746444	-0.085555	0.649773	-0.115311	-8.922373	-81.797216	25.295649
01464		-0.746281	-0.085301	0.650044	-0.115028	-9.001708	-81.831617	25.330595
01465		-0.746032	-0.085131	0.650416	-0.114662	-9.020964	-81.884516	25.305341
01466		-0.745692	-0.085304	0.650865	-0.114199	-8.817030	-81.960980	25.076870
01467		-0.745391	-0.085938	0.651187	-0.113856	-8.366538	-82.032215	24.649508
01468		-0.745020	-0.086350	0.651661	-0.113252	-7.941760	-82.121240	24.208063
01469		-0.744447	-0.086082	0.652555	-0.112075	-7.721190	-82.256117	23.867678
01470		-0.743743	-0.085687	0.653678	-0.110499	-7.410982	-82.424803	23.394166
01471		-0.743130	-0.085824	0.654635	-0.108834	-6.647210	-82.585729	22.503679
01472		-0.742823	-0.086572	0.655175	-0.107073	-5.278230	-82.701413	21.050632
01473		-0.742873	-0.087505	0.655317	-0.105079	-3.506699	-82.759164	19.191623
01474		-0.743124	-0.088331	0.655283	-0.102804	-1.573585	-82.781699	17.139573
01475		-0.743465	-0.089183	0.655161	-0.100351	0.509505	-82.783030	14.925299
01476		-0.744043	-0.090036	0.654773	-0.097805	2.674402	-82.734367	12.622071
01477		-0.744845	-0.090712	0.654139	-0.095285	4.686915	-82.635844	10.459404
01478		-0.745648	-0.091035	0.653545	-0.092742	6.420745	-82.530526	8.544566
01479		-0.746273	-0.090965	0.653183	-0.090301	7.788520	-82.451449	6.971897
01480		-0.746642	-0.090498	0.653151	-0.087915	8.846396	-82.416120	5.680778
01481		-0.746705	-0.089585	0.653517	-0.085569	9.597426	-82.436597	4.662779
01482		-0.746481	-0.088359	0.654227	-0.083343	10.100373	-82.508499	3.876786
01483		-0.746167	-0.086988	0.655010	-0.081420	10.349003	-82.594723	3.358111
01484		-0.745983	-0.085465	0.655599	-0.079964	10.214359	-82.657771	3.248645
01485		-0.745846	-0.083748	0.656105	-0.078910	9.703646	-82.712977	3.532355
01486		-0.745797	-0.081883	0.656464	-0.078332	8.794688	-82.750933	4.241383
01487		-0.745838	-0.079753	0.656709	-0.078093	7.488621	-82.772042	5.353770
01488		-0.746024	-0.077464	0.656777	-0.078051	5.949037	-82.763468	6.702996
01489		-0.746284	-0.075110	0.656760	-0.078011	4.372536	-82.737379	8.084062
01490		-0.746562	-0.072874	0.656711	-0.077885	2.940098	-82.703243	9.323888
01491		-0.747018	-0.070891	0.656444	-0.077588	1.810419	-82.635753	10.267802
01492		-0.747626	-0.069276	0.655982	-0.077096	1.075771	-82.541977	10.831114
01493		-0.748356	-0.068053	0.655355	-0.076430	0.729389	-82.428217	11.024035
01494		-0.749235	-0.067223	0.654514	-0.075763	0.663905	-82.287919	10.968258
01495		-0.750185	-0.066619	0.653564	-0.075086	0.756061	-82.134795	10.772560
01496		-0.751111	-0.066189	0.652618	-0.074441	0.932117	-81.984794	10.509867
01497		-0.751974	-0.065890	0.651720	-0.073857	1.141921	-81.844090	10.228901
01498		-0.752800	-0.065599	0.650853	-0.073348	1.306859	-81.708291	9.999682
01499		-0.753677	-0.065289	0.649914	-0.072935	1.409420	-81.561824	9.839153
01500		-0.754530	-0.064931	0.648990	-0.072660	1.410809	-81.417344	9.787103
01501		-0.755336	-0.064735	0.648074	-0.072642	1.374233	-81.276777	9.807281
01502		-0.756102	-0.064774	0.647161	-0.072780	1.395369	-81.140018	9.801567
01503		-0.756915	-0.064896	0.646199	-0.072767	1.537321	-80.996995	9.669646
01504		-0.757891	-0.065018	0.645056	-0.072639	1.739867	-80.826541	9.467940
01505		-0.758970	-0.065164	0.643803	-0.072353	2.027032	-80.639644	9.170799
01506		-0.760201	-0.065555	0.642342	-0.072067	2.441543	-80.424417	8.766681
01507		-0.761484	-0.066256	0.640789	-0.071702	3.035084	-80.198413	8.202512
01508		-0.762731	-0.067138	0.639272	-0.071175	3.761733	-79.978200	7.506715
01509		-0.763810	-0.068333	0.637916	-0.070627	4.617690	-79.783778	6.705309
01510		-0.764778	-0.069730	0.636664	-0.070082	5.539646	-79.604874	5.854667
01511		-0.765496	-0.071099	0.635728	-0.069359	6.492668	-79.469302	4.955704
01512		-0.766086	-0.072142	0.634997	-0.068458	7.340083	-79.358626	4.120891
01513		-0.766855	-0.072805	0.634093	-0.067511	8.002899	-79.218042	3.436233
01514		-0.767673	-0.073229	0.633131	-0.066788	8.448623	-79.069146	2.967446
01515		-0.768440	-0.073299	0.632245	-0.066281	8.640817	-78.932433	2.740780
01516		-0.769312	-0.072905	0.631261	-0.065979	8.535277	-78.781941	2.790880
01517		-0.770396	-0.072155	0.630035	-0.065874	8.191332	-78.596612	3.066626
01518		-0.771647	-0.071284	0.628599	-0.065898	7.751672	-78.380850	3.439213
01519		-0.772964	-0.070409	0.627069	-0.065981	7.302490	-78.151740	3.825804
01520		-0.774354	-0.069717	0.625416	-0.066102	6.932334	-77.905766	4.151700
01521		-0.775771	-0.069226	0.623698	-0.066236	6.655211	-77.651517	4.402223
01522		-0.777128	-0.068848	0.622043	-0.066291	6.461391	-77.406605	4.572216
01523		-0.778281	-0.068627	0.620623	-0.066299	6.355330	-77.197153	4.663133
01524		-0.779294	-0.068544	0.619361	-0.066285	6.315801	-77.011800	4.696689
01525		-0.780227	-0.068594	0.618176	-0.066323	6.313682	-76.839087	4.707947
01526		-0.781131	-0.068772	0.617006	-0.066401	6.349615	-76.669783	4.694877
01527		-0.782044	-0.069012	0.615805	-0.066551	6.387382	-76.497247	4.691070
01528		-0.783009	-0.069311	0.614523	-0.066743	6.433685	-76.313751	4.687091
01529		-0.784011	-0.069613	0.613181	-0.067000	6.460916	-76.122392	4.707984
01530		-0.785030	-0.069964	0.611796	-0.067372	6.472281	-75.926234	4.758276
01531		-0.786052	-0.070307	0.610389	-0.067859	6.449033	-75.728014	4.852026
01532		-0.787081	-0.070665	0.608954	-0.068448	6.403550	-75.527130	4.977740
01533		-0.788085	-0.071048	0.607531	-0.069133	6.343388	-75.329132	5.128164
01534		-0.789030	-0.071474	0.606170	-0.069865	6.288781	-75.140972	5.280367
01535		-0.789914	-0.071926	0.604876	-0.070620	6.239712	-74.963163	5.430903
01536		-0.790788	-0.072443	0.603581	-0.071385	6.212873	-74.785958	5.565476
01537		-0.791632	-0.072952	0.602322	-0.072149	6.185865	-74.614223	5.699495
01538		-0.792425	-0.073468	0.601121	-0.072921	6.160573	-74.451191	5.832968
01539		-0.793225	-0.074011	0.599899	-0.073744	6.133431	-74.285916	5.974877
01540		-0.794022	-0.074461	0.598687	-0.074557	6.079290	-74.121546	6.135362
01541		-0.794819	-0.074903	0.597461	-0.075442	6.006755	-73.955939	6.319628
01542		-0.795608	-0.075332	0.596243	-0.076332	5.931198	-73.791556	6.506233
01543		-0.796370	-0.075801	0.595041	-0.077295	5.853871	-73.630559	6.704099
01544		-0.797046	-0.076335	0.593936	-0.078300	5.789346	-73.484366	6.897676
01545		-0.797622	-0.076932	0.592953	-0.079291	5.749630	-73.356386	7.070242
01546		-0.798105	-0.077568	0.592093	-0.080230	5.735642	-73.246164	7.215966
01547		-0.798526	-0.078264	0.591317	-0.081087	5.760104	-73.147877	7.321117
01548		-0.799008	-0.079040	0.590455	-0.081860	5.830846	-73.037875	7.379986
01549		-0.799484	-0.079793	0.589611	-0.082567	5.909316	-72.929772	7.423803
01550		-0.799988	-0.080556	0.588744	-0.083132	6.023486	-72.817613	7.421234
01551		-0.800510	-0.081294	0.587858	-0.083648	6.140961	-72.702478	7.409321
01552		-0.801105	-0.082053	0.586864	-0.084193	6.257855	-72.572328	7.402463
01553		-0.801713	-0.082957	0.585810	-0.084857	6.391958	-72.436317	7.400327
01554		-0.802337	-0.083978	0.584687	-0.085698	6.521834	-72.293173	7.426946
01555		-0.802904	-0.085212	0.583566	-0.086807	6.655895	-72.154846	7.489122
01556		-0.803492	-0.086735	0.582310	-0.088277	6.798398	-72.003675	7.597115
01557		-0.804107	-0.088430	0.580922	-0.090119	6.911926	-71.839168	7.779461
01558		-0.804681	-0.090016	0.579562	-0.092164	6.950925	-71.680232	8.044256
01559		-0.805320	-0.091202	0.578160	-0.094196	6.877546	-71.511926	8.387734
01560		-0.805890	-0.091865	0.576956	-0.096035	6.694489	-71.364717	8.781379
01561		-0.806332	-0.092118	0.576047	-0.097538	6.463791	-71.251660	9.160109
01562		-0.806692	-0.092170	0.575341	-0.098666	6.253678	-71.161877	9.470130
01563		-0.806978	-0.092149	0.574812	-0.099428	6.097676	-71.093003	9.689093
01564		-0.807211	-0.092162	0.574412	-0.099840	6.022687	-71.039992	9.800623
01565		-0.807418	-0.092318	0.574078	-0.099942	6.051416	-70.995712	9.794290
01566		-0.807620	-0.092534	0.573770	-0.099878	6.130951	-70.954665	9.728351
01567		-0.807820	-0.092738	0.573489	-0.099684	6.232581	-70.916097	9.628362
01568		-0.808010	-0.092889	0.573241	-0.099431	6.330329	-70.881012	9.523044
01569		-0.808213	-0.092870	0.572990	-0.099239	6.367461	-70.844171	9.469250
01570		-0.808388	-0.092724	0.572771	-0.099219	6.332632	-70.811553	9.491082
01571		-0.808481	-0.092532	0.572630	-0.099450	6.233692	-70.791309	9.593780
01572		-0.808477	-0.092353	0.572582	-0.099928	6.086895	-70.785991	9.765431
01573		-0.808432	-0.092172	0.572565	-0.100553	5.909443	-70.786064	9.979767
01574		-0.808344	-0.091984	0.572591	-0.101285	5.707899	-70.792659	10.226303
01575		-0.808225	-0.091815	0.572657	-0.102013	5.511205	-70.804792	10.469038
01576		-0.808080	-0.091669	0.572766	-0.102674	5.333806	-70.822639	10.688799
01577		-0.808000	-0.091602	0.572790	-0.103236	5.200138	-70.828692	10.863438
01578		-0.808006	-0.091668	0.572684	-0.103712	5.124491	-70.817809	10.984290
01579		-0.808091	-0.091888	0.572448	-0.104155	5.102384	-70.790558	11.062103
01580		-0.808213	-0.092209	0.572157	-0.104526	5.124625	-70.756434	11.098078
01581		-0.808324	-0.092569	0.571877	-0.104884	5.160178	-70.724359	11.122938
01582		-0.808413	-0.092965	0.571621	-0.105239	5.205876	-70.696113	11.140240
01583		-0.808482	-0.093315	0.571408	-0.105552	5.245953	-70.673176	11.155812
01584		-0.808540	-0.093572	0.571236	-0.105814	5.269526	-70.654327	11.175762
01585		-0.808597	-0.093713	0.571100	-0.105989	5.276925	-70.638316	11.195059
01586		-0.808672	-0.093742	0.570976	-0.106058	5.274172	-70.621765	11.206385
01587		-0.808764	-0.093719	0.570858	-0.106010	5.280037	-70.604615	11.194951
01588		-0.808872	-0.093635	0.570744	-0.105879	5.285458	-70.586683	11.172161
01589		-0.808981	-0.093480	0.570663	-0.105621	5.295424	-70.571499	11.128244
01590		-0.809099	-0.093161	0.570620	-0.105224	5.286556	-70.558599	11.078004
01591		-0.809160	-0.092649	0.570707	-0.104738	5.238481	-70.560657	11.043148
01592		-0.809131	-0.091783	0.571000	-0.104127	5.111615	-70.585976	11.046743
01593		-0.808937	-0.090681	0.571569	-0.103475	4.920393	-70.646586	11.090830
01594		-0.808890	-0.090038	0.571792	-0.103169	4.796051	-70.667233	11.135886
01595		-0.809103	-0.089783	0.571539	-0.103126	4.739508	-70.628127	11.168714
01596		-0.809367	-0.089778	0.571147	-0.103229	4.726928	-70.573811	11.190733
01597		-0.809606	-0.089754	0.570773	-0.103443	4.686726	-70.522354	11.247930
01598		-0.809602	-0.089730	0.570733	-0.103714	4.627158	-70.517938	11.328085
01599		-0.809433	-0.090049	0.570838	-0.104180	4.620698	-70.539783	11.399212
01600		-0.809245	-0.090809	0.570851	-0.104907	4.687048	-70.556437	11.455869
01601		-0.809022	-0.092027	0.570787	-0.105908	4.828645	-70.570467	11.498241
01602		-0.808767	-0.093544	0.570677	-0.107112	5.014562	-70.583787	11.537970
01603		-0.808450	-0.095155	0.570605	-0.108467	5.195782	-70.605167	11.602621
01604		-0.808145	-0.096482	0.570555	-0.109818	5.297602	-70.626038	11.722911
01605		-0.807831	-0.097276	0.570627	-0.111045	5.271795	-70.655562	11.915958
01606		-0.807509	-0.097636	0.570819	-0.112076	5.159775	-70.694515	12.142574
01607		-0.807187	-0.097756	0.571085	-0.112938	5.012066	-70.739004	12.370767
01608		-0.806828	-0.097633	0.571482	-0.113598	4.832326	-70.796690	12.593640
01609		-0.806508	-0.097296	0.571924	-0.113940	4.653959	-70.855281	12.770913
01610		-0.806196	-0.096897	0.572427	-0.113954	4.522244	-70.919611	12.868976
01611		-0.805918	-0.096547	0.572935	-0.113669	4.465384	-70.983730	12.871467
01612		-0.805675	-0.096304	0.573434	-0.113080	4.501455	-71.046506	12.764656
01613		-0.805477	-0.096209	0.573887	-0.112267	4.628113	-71.104028	12.561064
01614		-0.805319	-0.096192	0.574294	-0.111330	4.805457	-71.155475	12.303219
01615		-0.805156	-0.096230	0.574683	-0.110468	4.984393	-71.205394	12.054605
01616		-0.805002	-0.096261	0.575028	-0.109761	5.131302	-71.249920	11.850411
01617		-0.804850	-0.096233	0.575336	-0.109287	5.214135	-71.289763	11.724927
01618		-0.804671	-0.096116	0.575650	-0.109058	5.220341	-71.330758	11.689029
01619		-0.804473	-0.095869	0.575976	-0.109013	5.149724	-71.372650	11.734317
01620		-0.804288	-0.095457	0.576291	-0.109075	5.009092	-71.411351	11.845011
01621		-0.804123	-0.095015	0.576585	-0.109130	4.860800	-71.446544	11.960312
01622		-0.804004	-0.094614	0.576812	-0.109150	4.733691	-71.472744	12.055203
01623		-0.803950	-0.094367	0.576936	-0.109104	4.667732	-71.486231	12.096465
01624		-0.803947	-0.094269	0.576974	-0.109010	4.658180	-71.489611	12.090020
01625		-0.803958	-0.094322	0.576972	-0.108897	4.697754	-71.489346	12.045444
01626		-0.803976	-0.094568	0.576917	-0.108841	4.782698	-71.485017	11.976469
01627		-0.803979	-0.094919	0.576850	-0.108870	4.880376	-71.480894	11.910360
01628		-0.803949	-0.095297	0.576806	-0.108993	4.965692	-71.480988	11.866589
01629		-0.803912	-0.095638	0.576769	-0.109163	5.029585	-71.481922	11.845125
01630		-0.803799	-0.095935	0.576840	-0.109362	5.072120	-71.497407	11.843407
01631		-0.803662	-0.096170	0.576948	-0.109585	5.090144	-71.517562	11.862917
01632		-0.803528	-0.096349	0.577071	-0.109768	5.099957	-71.538599	11.882558
01633		-0.803403	-0.096475	0.577194	-0.109927	5.099627	-71.558778	11.906046
01634		-0.803303	-0.096575	0.577296	-0.110033	5.103582	-71.575305	11.918816
01635		-0.803242	-0.096652	0.577353	-0.110111	5.107717	-71.584967	11.927356
01636		-0.803217	-0.096655	0.577383	-0.110136	5.102565	-71.589331	11.934717
01637		-0.803221	-0.096590	0.577394	-0.110099	5.091271	-71.589755	11.937523
01638		-0.803254	-0.096404	0.577402	-0.109982	5.061231	-71.587435	11.942469
01639		-0.803246	-0.096014	0.577517	-0.109780	4.987335	-71.596577	11.966967
01640		-0.803180	-0.095464	0.577754	-0.109492	4.881226	-71.620045	12.002990
01641		-0.803013	-0.094659	0.578202	-0.109055	4.726038	-71.668500	12.053999
01642		-0.802735	-0.094107	0.578735	-0.108748	4.613885	-71.733700	12.093376
01643		-0.802728	-0.094100	0.578751	-0.108717	4.618227	-71.735647	12.085760
01644		-0.802713	-0.094555	0.578663	-0.108904	4.714192	-71.731005	12.043214
01645		-0.802737	-0.094945	0.578516	-0.109173	4.775408	-71.717699	12.036966
01646		-0.802524	-0.095110	0.578745	-0.109383	4.771981	-71.753687	12.070628
01647		-0.802072	-0.095346	0.579279	-0.109660	4.765605	-71.834232	12.117731
01648		-0.801640	-0.095952	0.579699	-0.110070	4.843203	-71.904936	12.122659
01649		-0.801257	-0.096914	0.579962	-0.110632	4.998426	-71.959998	12.092605
01650		-0.800923	-0.098291	0.580045	-0.111402	5.237154	-71.997125	12.031061
01651		-0.800661	-0.100032	0.579907	-0.112439	5.532451	-72.010599	11.966036
01652		-0.800468	-0.101950	0.579580	-0.113775	5.820009	-72.002271	11.948863
01653		-0.800256	-0.103839	0.579221	-0.115372	6.042274	-71.991440	12.016317
01654		-0.800116	-0.105393	0.578796	-0.117056	6.147755	-71.967516	12.180484
01655		-0.799985	-0.106492	0.578440	-0.118704	6.123469	-71.946721	12.433664
01656		-0.799823	-0.107227	0.578210	-0.120244	6.011617	-71.937362	12.734855
01657		-0.799563	-0.107761	0.578182	-0.121624	5.869613	-71.952180	13.035694
01658		-0.799246	-0.108119	0.578324	-0.122711	5.733282	-71.985900	13.291313
01659		-0.798887	-0.108359	0.578617	-0.123452	5.632831	-72.036516	13.472037
01660		-0.798473	-0.108570	0.579074	-0.123797	5.604247	-72.107040	13.544977
01661		-0.797983	-0.108748	0.579724	-0.123761	5.644320	-72.201475	13.514187
01662		-0.797547	-0.108852	0.580375	-0.123430	5.728181	-72.292907	13.409064
01663		-0.797159	-0.108910	0.581007	-0.122908	5.842851	-72.379524	13.253584
01664		-0.796825	-0.108941	0.581592	-0.122281	5.975612	-72.458072	13.069204
01665		-0.796572	-0.108969	0.582068	-0.121633	6.116998	-72.521087	12.874687
01666		-0.796380	-0.108969	0.582451	-0.121059	6.236843	-72.570920	12.705778
01667		-0.796209	-0.108929	0.582788	-0.120599	6.320107	-72.614428	12.579820
01668		-0.796013	-0.108798	0.583152	-0.120248	6.350114	-72.661122	12.508650
01669		-0.795774	-0.108640	0.583549	-0.120048	6.336870	-72.713387	12.490807
01670		-0.795519	-0.108454	0.583955	-0.119934	6.294564	-72.767260	12.506850
01671		-0.795258	-0.108280	0.584349	-0.119902	6.237291	-72.820207	12.545682
01672		-0.795026	-0.108184	0.584680	-0.119917	6.194979	-72.865704	12.580132
01673		-0.794854	-0.108180	0.584903	-0.119972	6.174440	-72.897742	12.604105
01674		-0.794766	-0.108301	0.584979	-0.120071	6.187194	-72.911268	12.609293
01675		-0.794719	-0.108585	0.584961	-0.120212	6.243139	-72.914261	12.588602
01676		-0.794686	-0.108980	0.584897	-0.120390	6.326353	-72.912784	12.552970
01677		-0.794640	-0.109406	0.584836	-0.120601	6.411803	-72.912488	12.520510
01678		-0.794589	-0.109898	0.584764	-0.120840	6.511240	-72.911804	12.481773
01679		-0.794539	-0.110411	0.584678	-0.121116	6.609382	-72.909928	12.449222
01680		-0.794471	-0.110928	0.584615	-0.121390	6.708350	-72.911289	12.415944
01681		-0.794385	-0.111419	0.584594	-0.121607	6.811266	-72.917758	12.371660
01682		-0.794301	-0.111888	0.584587	-0.121763	6.921374	-72.925275	12.313287
01683		-0.794221	-0.112328	0.584586	-0.121877	7.032403	-72.932950	12.248134
01684		-0.794184	-0.112732	0.584551	-0.121916	7.150345	-72.934529	12.166995
01685		-0.794146	-0.112996	0.584557	-0.121894	7.237470	-72.939071	12.099885
01686		-0.794102	-0.113160	0.584603	-0.121805	7.308840	-72.947338	12.034539
01687		-0.794039	-0.113282	0.584687	-0.121699	7.369947	-72.960074	11.974467
01688		-0.794015	-0.113370	0.584733	-0.121550	7.431083	-72.966560	11.908006
01689		-0.793975	-0.113457	0.584801	-0.121403	7.491446	-72.976158	11.842409
01690		-0.793911	-0.113546	0.584905	-0.121239	7.555878	-72.990737	11.771425
01691		-0.793828	-0.113661	0.585025	-0.121094	7.623323	-73.008053	11.701001
01692		-0.793733	-0.113845	0.585146	-0.120959	7.710753	-73.026717	11.617196
01693		-0.793623	-0.114029	0.585284	-0.120842	7.793405	-73.047770	11.539585
01694		-0.793504	-0.114190	0.585440	-0.120717	7.870955	-73.071133	11.464433
01695		-0.793372	-0.114285	0.585620	-0.120617	7.921560	-73.097151	11.412745
01696		-0.793244	-0.114370	0.585792	-0.120544	7.962614	-73.122042	11.372081
01697		-0.793117	-0.114404	0.585962	-0.120524	7.975628	-73.146594	11.359588
01698		-0.792978	-0.114406	0.586147	-0.120532	7.971257	-73.173019	11.364124
01699		-0.792844	-0.114381	0.586332	-0.120541	7.958122	-73.199136	11.375303
01700		-0.792724	-0.114319	0.586506	-0.120545	7.934736	-73.222975	11.393235
01701		-0.792604	-0.114266	0.586677	-0.120555	7.912677	-73.246663	11.411122
01702		-0.792473	-0.114177	0.586877	-0.120526	7.887818	-73.273609	11.425526
01703		-0.792351	-0.114012	0.587091	-0.120439	7.852579	-73.300939	11.439141
01704		-0.792237	-0.113820	0.587312	-0.120292	7.822470	-73.328146	11.440357
01705		-0.792111	-0.113576	0.587576	-0.120063	7.794997	-73.360123	11.427786
01706		-0.791998	-0.113323	0.587832	-0.119792	7.774434	-73.390342	11.404099
01707		-0.791912	-0.113034	0.588073	-0.119456	7.758278	-73.417236	11.367684
01708		-0.791821	-0.112638	0.588361	-0.119012	7.733336	-73.448324	11.322187
01709		-0.791754	-0.112218	0.588636	-0.118491	7.719335	-73.476630	11.257253
01710		-0.791709	-0.111758	0.588908	-0.117870	7.716960	-73.502972	11.169369
01711		-0.791690	-0.111307	0.589148	-0.117228	7.723114	-73.524655	11.071967
01712		-0.791686	-0.110843	0.589383	-0.116513	7.743003	-73.544734	10.953733
01713		-0.791717	-0.110350	0.589577	-0.115780	7.758524	-73.558633	10.836107
01714		-0.791766	-0.109852	0.589746	-0.115055	7.771106	-73.568940	10.721924
01715		-0.791823	-0.109335	0.589910	-0.114321	7.779921	-73.578143	10.609155
01716		-0.791885	-0.108793	0.590069	-0.113578	7.782843	-73.586465	10.499397
01717		-0.791937	-0.108222	0.590253	-0.112803	7.784095	-73.597680	10.386283
01718		-0.791964	-0.107620	0.590486	-0.111973	7.788057	-73.614952	10.263212
01719		-0.791971	-0.106997	0.590755	-0.111093	7.796972	-73.636867	10.129249
01720		-0.791939	-0.106363	0.591087	-0.110160	7.814936	-73.667092	9.980775
01721		-0.791901	-0.105724	0.591431	-0.109204	7.837001	-73.698871	9.825858
01722		-0.791841	-0.105073	0.591809	-0.108212	7.863866	-73.735130	9.662052
01723		-0.791786	-0.104415	0.592182	-0.107204	7.893054	-73.770564	9.494183
01724		-0.791711	-0.103694	0.592596	-0.106162	7.910124	-73.810967	9.330241
01725		-0.791631	-0.102979	0.593022	-0.105077	7.940134	-73.852703	9.150416
01726		-0.791538	-0.102228	0.593473	-0.103954	7.967796	-73.897530	8.966669
01727		-0.791459	-0.101448	0.593918	-0.102773	8.001493	-73.940637	8.769857
01728		-0.791383	-0.100608	0.594377	-0.101519	8.033537	-73.984627	8.563703
01729		-0.791323	-0.099746	0.594830	-0.100179	8.080914	-74.026826	8.333458
01730		-0.791284	-0.098832	0.595274	-0.098746	8.134808	-74.066267	8.084712
01731		-0.791275	-0.097893	0.595695	-0.097202	8.209280	-74.101380	7.804408
01732		-0.791286	-0.096936	0.596108	-0.095527	8.311521	-74.134044	7.484095
01733		-0.791308	-0.095972	0.596515	-0.093760	8.435499	-74.164821	7.134029
01734		-0.791345	-0.095047	0.596891	-0.091980	8.576446	-74.191614	6.769214
01735		-0.791410	-0.094153	0.597220	-0.090186	8.731970	-74.211870	6.391542
01736		-0.791484	-0.093275	0.597524	-0.088414	8.887931	-74.229048	6.016531
01737		-0.791574	-0.092385	0.597798	-0.086679	9.030552	-74.242164	5.657163
01738		-0.791664	-0.091501	0.598053	-0.085018	9.156728	-74.253714	5.320934
01739		-0.791758	-0.090673	0.598276	-0.083448	9.278479	-74.262164	5.001271
01740		-0.791860	-0.089872	0.598468	-0.081952	9.390431	-74.267250	4.699966
01741		-0.791974	-0.089126	0.598624	-0.080514	9.505605	-74.268231	4.404810
01742		-0.792074	-0.088438	0.598774	-0.079166	9.617444	-74.269882	4.125150
01743		-0.792173	-0.087789	0.598902	-0.077916	9.717572	-74.269736	3.868574
01744		-0.792264	-0.087156	0.599024	-0.076752	9.800789	-74.270053	3.637363
01745		-0.792366	-0.086593	0.599104	-0.075709	9.876218	-74.266036	3.429673
01746		-0.792465	-0.086086	0.599157	-0.074830	9.928550	-74.260636	3.263354
01747		-0.792559	-0.085630	0.599193	-0.074062	9.969345	-74.254340	3.121818
01748		-0.792648	-0.085219	0.599217	-0.073386	10.001617	-74.247735	3.000239
01749		-0.792701	-0.084877	0.599261	-0.072854	10.021629	-74.246093	2.908189
01750		-0.792745	-0.084623	0.599291	-0.072422	10.045596	-74.243942	2.827853
01751		-0.792786	-0.084397	0.599310	-0.072073	10.057674	-74.241518	2.768488
01752		-0.792826	-0.084255	0.599311	-0.071797	10.079355	-74.237614	2.712443
01753		-0.792894	-0.084222	0.599247	-0.071617	10.111286	-74.226160	2.663147
01754		-0.792981	-0.084318	0.599130	-0.071524	10.163581	-74.208457	2.611339
01755		-0.793040	-0.084438	0.599038	-0.071502	10.206596	-74.195340	2.576593
01756		-0.793092	-0.084581	0.598944	-0.071538	10.242521	-74.182794	2.555583
01757		-0.793118	-0.084720	0.598880	-0.071621	10.266326	-74.175257	2.550172
01758		-0.793139	-0.084888	0.598812	-0.071752	10.287805	-74.167695	2.553419
01759		-0.793178	-0.085099	0.598711	-0.071917	10.313864	-74.156039	2.558552
01760		-0.793209	-0.085331	0.598611	-0.072135	10.334201	-74.145257	2.575392
01761		-0.793261	-0.085586	0.598477	-0.072370	10.356546	-74.129944	2.593649
01762		-0.793320	-0.085874	0.598326	-0.072633	10.382414	-74.112726	2.613416
01763		-0.793384	-0.086182	0.598161	-0.072925	10.407520	-74.093958	2.637974
01764		-0.793473	-0.086500	0.597960	-0.073234	10.430649	-74.070215	2.666918
01765		-0.793573	-0.086784	0.597743	-0.073574	10.433833	-74.044613	2.715576
01766		-0.793644	-0.087037	0.597572	-0.073908	10.429753	-74.025307	2.768255
01767		-0.793727	-0.087224	0.597391	-0.074247	10.402265	-74.004584	2.839406
01768		-0.793797	-0.087344	0.597243	-0.074551	10.362254	-73.987774	2.914654
01769		-0.793882	-0.087365	0.597095	-0.074808	10.301131	-73.969976	2.999037
01770		-0.794008	-0.087268	0.596917	-0.075007	10.214305	-73.946751	3.094617
01771		-0.794148	-0.087034	0.596751	-0.075117	10.104388	-73.923386	3.194730
01772		-0.794340	-0.086656	0.596547	-0.075147	9.965610	-73.893047	3.305343
01773		-0.794534	-0.086188	0.596363	-0.075089	9.819454	-73.864033	3.408566
01774		-0.794682	-0.085630	0.596255	-0.075017	9.649874	-73.845331	3.526580
01775		-0.794840	-0.085001	0.596151	-0.074887	9.471234	-73.825992	3.642968
01776		-0.794998	-0.084278	0.596060	-0.074754	9.262817	-73.808024	3.781137
01777		-0.795155	-0.083549	0.595965	-0.074658	9.043962	-73.789905	3.932320
01778		-0.795293	-0.082810	0.595887	-0.074633	8.804866	-73.774713	4.108767
01779		-0.795414	-0.082079	0.595816	-0.074718	8.542488	-73.761526	4.318169
01780		-0.795506	-0.081281	0.595783	-0.074870	8.242112	-73.754047	4.565419
01781		-0.795598	-0.080359	0.595750	-0.075151	7.870328	-73.746653	4.884585
01782		-0.795714	-0.079302	0.595698	-0.075468	7.445248	-73.735487	5.248915
01783		-0.795825	-0.078115	0.595665	-0.075790	6.976887	-73.725555	5.646172
01784		-0.795955	-0.076802	0.595625	-0.076070	6.478268	-73.712677	6.059904
01785		-0.796091	-0.075416	0.595600	-0.076239	5.983963	-73.699459	6.454264
01786		-0.796230	-0.074019	0.595587	-0.076253	5.524320	-73.686095	6.800224
01787		-0.796394	-0.072644	0.595553	-0.076131	5.106091	-73.668466	7.095486
01788		-0.796587	-0.071363	0.595478	-0.075906	4.744892	-73.644794	7.333094
01789		-0.796773	-0.070120	0.595414	-0.075618	4.412091	-73.622337	7.540110
01790		-0.796981	-0.068909	0.595324	-0.075250	4.110204	-73.596070	7.712389
01791		-0.797197	-0.067706	0.595225	-0.074835	3.823466	-73.568117	7.866480
01792		-0.797426	-0.066561	0.595103	-0.074392	3.563281	-73.537182	7.996375
01793		-0.797681	-0.065510	0.594931	-0.073965	3.331205	-73.500301	8.107430
01794		-0.797967	-0.064558	0.594701	-0.073559	3.128042	-73.456106	8.199454
01795		-0.798295	-0.063683	0.594403	-0.073182	2.945414	-73.403087	8.279814
01796		-0.798649	-0.062879	0.594051	-0.072861	2.773640	-73.343463	8.359922
01797		-0.799066	-0.062077	0.593608	-0.072593	2.593110	-73.270922	8.453415
01798		-0.799461	-0.061337	0.593173	-0.072433	2.407741	-73.200565	8.565679
01799		-0.799860	-0.060575	0.592724	-0.072347	2.199750	-73.128108	8.704946
01800		-0.800272	-0.059814	0.592246	-0.072327	1.978442	-73.051722	8.863118
01801		-0.800672	-0.059065	0.591777	-0.072355	1.751297	-72.976745	9.031977
01802		-0.801070	-0.058324	0.591303	-0.072423	1.519398	-72.901134	9.209572
01803		-0.801468	-0.057588	0.590822	-0.072542	1.279036	-72.824469	9.400188
01804		-0.801847	-0.056872	0.590355	-0.072712	1.034579	-72.750064	9.600818
01805		-0.802207	-0.056105	0.589919	-0.072877	0.775821	-72.679151	9.810986
01806		-0.802568	-0.055317	0.589483	-0.073033	0.515132	-72.607760	10.020634
01807		-0.802960	-0.054483	0.589013	-0.073144	0.253777	-72.530781	10.223611
01808		-0.803343	-0.053604	0.588554	-0.073280	-0.025455	-72.454616	10.442732
01809		-0.803731	-0.052660	0.588093	-0.073415	-0.321790	-72.377016	10.673487
01810		-0.804135	-0.051615	0.587615	-0.073558	-0.647484	-72.295529	10.926060
01811		-0.804555	-0.050438	0.587131	-0.073652	-0.998833	-72.210933	11.189501
01812		-0.804981	-0.049160	0.586648	-0.073717	-1.371162	-72.124879	11.463109
01813		-0.805425	-0.047835	0.586152	-0.073678	-1.731422	-72.036227	11.712312
01814		-0.805855	-0.046466	0.585682	-0.073590	-2.091997	-71.950314	11.954075
01815		-0.806332	-0.045032	0.585162	-0.073386	-2.441251	-71.856585	12.169717
01816		-0.806846	-0.043647	0.584587	-0.073163	-2.765865	-71.755633	12.363236
01817		-0.807378	-0.042294	0.583984	-0.072902	-3.068792	-71.651301	12.534642
01818		-0.807977	-0.040976	0.583284	-0.072623	-3.349303	-71.533919	12.685220
01819		-0.808624	-0.039639	0.582518	-0.072316	-3.622447	-71.407194	12.824603
01820		-0.809327	-0.038202	0.581680	-0.071963	-3.907336	-71.269091	12.963898
01821		-0.810076	-0.036733	0.580774	-0.071611	-4.194349	-71.121000	13.102781
01822		-0.810843	-0.035140	0.579849	-0.071235	-4.507093	-70.968427	13.255193
01823		-0.811633	-0.033382	0.578905	-0.070764	-4.841888	-70.811140	13.408342
01824		-0.812458	-0.031435	0.577922	-0.070208	-5.205955	-70.646061	13.568189
01825		-0.813305	-0.029251	0.576935	-0.069462	-5.593258	-70.477785	13.716061
01826		-0.814144	-0.026929	0.575971	-0.068569	-5.986877	-70.311833	13.846788
01827		-0.814960	-0.024413	0.575056	-0.067490	-6.396840	-70.151018	13.962225
01828		-0.815759	-0.021617	0.574185	-0.066202	-6.841633	-69.993557	14.072049
01829		-0.816535	-0.018570	0.573353	-0.064737	-7.319119	-69.839556	14.179290
01830		-0.817373	-0.015193	0.572449	-0.063028	-7.829843	-69.672824	14.272353
01831		-0.818229	-0.011821	0.571498	-0.061250	-8.318658	-69.501420	14.338239
01832		-0.819044	-0.008648	0.570580	-0.059415	-8.743776	-69.339630	14.351943
01833		-0.819995	-0.005680	0.569459	-0.057372	-9.059614	-69.157131	14.256110
01834		-0.821002	-0.002969	0.568261	-0.055016	-9.246122	-68.973226	14.026187
01835		-0.822081	-0.000636	0.566965	-0.052280	-9.262402	-68.788155	13.625625
01836		-0.823308	0.001329	0.565453	-0.049239	-9.119734	-68.583907	13.071353
01837		-0.824555	0.003069	0.563901	-0.045993	-8.889226	-68.380673	12.430686
01838		-0.825750	0.004776	0.562398	-0.042691	-8.652788	-68.185599	11.781882
01839		-0.826904	0.006535	0.560926	-0.039368	-8.436548	-67.994610	11.146989
01840		-0.828004	0.008526	0.559498	-0.036023	-8.284914	-67.807473	10.555527
01841		-0.829126	0.010666	0.558004	-0.032679	-8.173949	-67.610229	9.992281
01842		-0.830162	0.012923	0.556599	-0.029367	-8.108316	-67.424569	9.467036
01843		-0.831082	0.015316	0.555324	-0.026149	-8.103721	-67.255462	8.999116
01844		-0.831986	0.017801	0.554028	-0.023120	-8.155083	-67.082236	8.594866
01845		-0.832869	0.020319	0.552722	-0.020365	-8.261045	-66.905929	8.264900
01846		-0.833782	0.022929	0.551330	-0.017806	-8.418339	-66.716680	7.994515
01847		-0.834749	0.025537	0.549820	-0.015479	-8.607742	-66.510526	7.775286
01848		-0.835745	0.028096	0.548235	-0.013402	-8.821329	-66.293364	7.604721
01849		-0.836744	0.030514	0.546621	-0.011558	-9.036347	-66.072418	7.466181
01850		-0.837732	0.032771	0.545006	-0.009935	-9.246392	-65.851441	7.354076
01851		-0.838712	0.034877	0.543390	-0.008499	-9.449019	-65.630490	7.262332
01852		-0.839688	0.036805	0.541771	-0.007278	-9.641525	-65.409074	7.192580
01853		-0.840610	0.038698	0.540221	-0.006172	-9.844977	-65.196629	7.146172
01854		-0.841496	0.040620	0.538710	-0.005156	-10.068930	-64.988808	7.125175
01855		-0.842352	0.042611	0.537224	-0.004235	-10.321731	-64.783303	7.134905
01856		-0.843181	0.044585	0.535767	-0.003378	-10.579534	-64.581473	7.156211
01857		-0.843957	0.046547	0.534381	-0.002553	-10.840465	-64.389332	7.184189
01858		-0.844653	0.048470	0.533113	-0.001788	-11.104645	-64.212953	7.223547
01859		-0.845316	0.050309	0.531891	-0.001070	-11.357236	-64.043309	7.261948
01860		-0.845937	0.052043	0.530737	-0.000508	-11.609229	-63.881777	7.321560
01861		-0.846500	0.053688	0.529675	-0.000067	-11.860936	-63.731860	7.398201
01862		-0.847034	0.055285	0.528655	0.000214	-12.123691	-63.585864	7.503221
01863		-0.847531	0.056894	0.527688	0.000381	-12.405034	-63.445167	7.635343
01864		-0.847982	0.058500	0.526787	0.000452	-12.699767	-63.311895	7.788902
01865		-0.848377	0.060147	0.525965	0.000463	-13.012911	-63.187604	7.962488
01866		-0.848734	0.061808	0.525196	0.000483	-13.328747	-63.070205	8.136942
01867		-0.849089	0.063456	0.524425	0.000499	-13.640302	-62.952449	8.308417
01868		-0.849453	0.065077	0.523635	0.000582	-13.934439	-62.833473	8.459015
01869		-0.849824	0.066619	0.522839	0.000695	-14.206218	-62.714711	8.591212
01870		-0.850234	0.068106	0.521980	0.000880	-14.451974	-62.589344	8.695918
01871		-0.850671	0.069500	0.521084	0.001101	-14.670414	-62.460727	8.777876
01872		-0.851137	0.070838	0.520140	0.001385	-14.865451	-62.327515	8.835670
01873		-0.851627	0.072098	0.519163	0.001691	-15.038327	-62.191266	8.875899
01874		-0.852129	0.073263	0.518175	0.002040	-15.184784	-62.055499	8.893885
01875		-0.852644	0.074361	0.517168	0.002407	-15.313350	-61.918427	8.898053
01876		-0.853149	0.075384	0.516184	0.002750	-15.429804	-61.784867	8.898314
01877		-0.853645	0.076346	0.515220	0.003099	-15.533890	-61.654883	8.890781
01878		-0.854117	0.077274	0.514297	0.003459	-15.631709	-61.530801	8.878906
01879		-0.854565	0.078140	0.513418	0.003774	-15.724175	-61.412561	8.870654
01880		-0.855008	0.078898	0.512562	0.004071	-15.797650	-61.298243	8.854032
01881		-0.855434	0.079568	0.511745	0.004349	-15.857296	-61.189774	8.832504
01882		-0.855827	0.080178	0.510989	0.004623	-15.908687	-61.089809	8.808150
01883		-0.856193	0.080771	0.510279	0.004927	-15.955402	-60.996626	8.778163
01884		-0.856540	0.081334	0.509605	0.005258	-15.994894	-60.908987	8.741283
01885		-0.856815	0.081954	0.509038	0.005613	-16.049000	-60.835307	8.712335
01886		-0.857069	0.082574	0.508507	0.005984	-16.103117	-60.766705	8.682204
01887		-0.857265	0.083241	0.508062	0.006392	-16.167206	-60.709626	8.655085
01888		-0.857435	0.083926	0.507656	0.006842	-16.232143	-60.658235	8.623890
01889		-0.857580	0.084617	0.507290	0.007322	-16.297151	-60.612695	8.589857
01890		-0.857695	0.085288	0.506975	0.007823	-16.358435	-60.574465	8.551949
01891		-0.857784	0.085927	0.506709	0.008311	-16.417359	-60.542601	8.515691
01892		-0.857827	0.086522	0.506527	0.008796	-16.472347	-60.522329	8.479594
01893		-0.857835	0.087160	0.506395	0.009263	-16.540400	-60.507672	8.454619
01894		-0.857831	0.087811	0.506281	0.009757	-16.609380	-60.495881	8.427099
01895		-0.857818	0.088452	0.506182	0.010230	-16.679414	-60.485830	8.403383
01896		-0.857799	0.089114	0.506088	0.010711	-16.752874	-60.476383	8.380642
01897		-0.857790	0.089779	0.505975	0.011192	-16.826191	-60.464530	8.357496
01898		-0.857779	0.090463	0.505862	0.011656	-16.904998	-60.452195	8.339547
01899		-0.857786	0.091132	0.505719	0.012127	-16.978651	-60.436192	8.317045
01900		-0.857807	0.091762	0.505559	0.012572	-17.046275	-60.418054	8.293990
01901		-0.857837	0.092378	0.505384	0.013014	-17.110847	-60.398044	8.269188
01902		-0.857876	0.092910	0.505209	0.013456	-17.158345	-60.378886	8.234537
01903		-0.857893	0.093407	0.505077	0.013859	-17.205710	-60.364961	8.205927
01904		-0.857918	0.093835	0.504945	0.014238	-17.241965	-60.351273	8.173943
01905		-0.857940	0.094242	0.504822	0.014592	-17.277067	-60.338447	8.144815
01906		-0.857965	0.094612	0.504700	0.014919	-17.308042	-60.325571	8.116905
01907		-0.858007	0.094938	0.504558	0.015230	-17.331043	-60.310266	8.085989
01908		-0.858074	0.095204	0.504385	0.015541	-17.340134	-60.291506	8.046270
01909		-0.858122	0.095449	0.504248	0.015832	-17.349296	-60.277262	8.009957
01910		-0.858201	0.095680	0.504059	0.016156	-17.349379	-60.256995	7.962893
01911		-0.858290	0.095897	0.503857	0.016444	-17.349795	-60.234521	7.920387
01912		-0.858381	0.096090	0.503656	0.016716	-17.347264	-60.212108	7.878228
01913		-0.858461	0.096279	0.503476	0.016956	-17.348760	-60.191771	7.843200
01914		-0.858543	0.096471	0.503292	0.017145	-17.356385	-60.169885	7.818239
01915		-0.858591	0.096657	0.503170	0.017285	-17.371551	-60.155127	7.805666
01916		-0.858611	0.096828	0.503100	0.017371	-17.392441	-60.146217	7.804711
01917		-0.858635	0.096980	0.503028	0.017423	-17.413104	-60.136471	7.808058
01918		-0.858636	0.097110	0.503000	0.017457	-17.433889	-60.132325	7.814893
01919		-0.858627	0.097211	0.502997	0.017451	-17.454412	-60.130945	7.827376
01920		-0.858622	0.097274	0.502993	0.017444	-17.467653	-60.129687	7.835857
01921		-0.858611	0.097321	0.503003	0.017442	-17.477747	-60.130571	7.842178
01922		-0.858595	0.097377	0.503017	0.017471	-17.486634	-60.132443	7.843995
01923		-0.858581	0.097446	0.503027	0.017527	-17.494459	-60.134209	7.841378
01924		-0.858571	0.097529	0.503026	0.017595	-17.503519	-60.134677	7.837712
01925		-0.858569	0.097601	0.503013	0.017634	-17.512843	-60.133140	7.837671
01926		-0.858576	0.097672	0.502986	0.017691	-17.519408	-60.130088	7.833370
01927		-0.858601	0.097725	0.502930	0.017755	-17.519709	-60.123694	7.823691
01928		-0.858620	0.097766	0.502888	0.017832	-17.517114	-60.119395	7.811053
01929		-0.858630	0.097829	0.502855	0.017933	-17.516886	-60.116587	7.796916
01930		-0.858640	0.097884	0.502821	0.018063	-17.511569	-60.114324	7.776048
01931		-0.858644	0.097965	0.502794	0.018207	-17.510330	-60.112975	7.755867
01932		-0.858660	0.098034	0.502749	0.018340	-17.506981	-60.109143	7.735448
