// General information: 
//  MT Manager version: 2022.2.0 
//  XDA version: 2022.2.0 build 7381 rev 124627 built on 2023-07-19
// Device information: 
//  DeviceId: 10B4215D
//  ProductCode: MTW2-3A7G6
//  Firmware Version: 4.14.0
//  Hardware Version: 3.0.0
// Device settings: 
//  Filter Profile: human(46.1)
//  Option Flags: Orientation Smoother Disabled, Position/Velocity Smoother Disabled, Continuous Zero Rotation Update Disabled, AHS Disabled, ICC Disabled
// Coordinate system: ENU
PacketCounter	SampleTimeFine	Quat_q0	Quat_q1	Quat_q2	Quat_q3	Roll	Pitch	Yaw
00370		0.279255	0.436820	-0.477500	0.709365	-69.465740	-62.426549	-177.402871
00371		0.278815	0.436892	-0.477108	0.709757	-69.400981	-62.402590	-177.388350
00372		0.278419	0.436948	-0.476738	0.710127	-69.336734	-62.380047	-177.379720
00373		0.278084	0.436935	-0.476489	0.710433	-69.289644	-62.354306	-177.372632
00374		0.277834	0.436859	-0.476395	0.710641	-69.267718	-62.327547	-177.364588
00375		0.277614	0.436771	-0.476371	0.710796	-69.260385	-62.301489	-177.351772
00376		0.277364	0.436695	-0.476358	0.710950	-69.259150	-62.274399	-177.331083
00377		0.277018	0.436673	-0.476291	0.711143	-69.257376	-62.246121	-177.296217
00378		0.276584	0.436705	-0.476116	0.711410	-69.241477	-62.217651	-177.255882
00379		0.276032	0.436808	-0.475833	0.711750	-69.215326	-62.188420	-177.203511
00380		0.275434	0.436945	-0.475456	0.712149	-69.173276	-62.159806	-177.152932
00381		0.274822	0.437104	-0.475065	0.712549	-69.131771	-62.132692	-177.098814
00382		0.274259	0.437264	-0.474677	0.712926	-69.088595	-62.109463	-177.051079
00383		0.273732	0.437404	-0.474321	0.713280	-69.048550	-62.086660	-177.006858
00384		0.273259	0.437532	-0.474002	0.713595	-69.013052	-62.066450	-176.966707
00385		0.272852	0.437627	-0.473783	0.713838	-68.994394	-62.047213	-176.926136
00386		0.272495	0.437689	-0.473647	0.714026	-68.989024	-62.027799	-176.885584
00387		0.272169	0.437726	-0.473594	0.714163	-68.998793	-62.007642	-176.841298
00388		0.271870	0.437729	-0.473551	0.714304	-69.004612	-61.985756	-176.804979
00389		0.271592	0.437740	-0.473547	0.714406	-69.020278	-61.966172	-176.764499
00390		0.271316	0.437713	-0.473547	0.714527	-69.031106	-61.942572	-176.729991
00391		0.271071	0.437686	-0.473591	0.714608	-69.051182	-61.921061	-176.693386
00392		0.270890	0.437644	-0.473663	0.714653	-69.072733	-61.902687	-176.664073
00393		0.270734	0.437600	-0.473757	0.714677	-69.098197	-61.885765	-176.635120
00394		0.270608	0.437556	-0.473849	0.714691	-69.121070	-61.871079	-176.611170
00395		0.270492	0.437513	-0.473926	0.714710	-69.140128	-61.857339	-176.590541
00396		0.270402	0.437469	-0.474016	0.714711	-69.160848	-61.845520	-176.571760
00397		0.270330	0.437423	-0.474127	0.714693	-69.185524	-61.834501	-176.552736
00398		0.270291	0.437356	-0.474282	0.714646	-69.216309	-61.823601	-176.535261
00399		0.270294	0.437278	-0.474514	0.714539	-69.262305	-61.814175	-176.514170
00400		0.270320	0.437185	-0.474792	0.714401	-69.316236	-61.804663	-176.492011
00401		0.270331	0.437104	-0.475075	0.714258	-69.374089	-61.795421	-176.464934
00402		0.270292	0.437087	-0.475257	0.714162	-69.419042	-61.789737	-176.435165
00403		0.270219	0.437115	-0.475335	0.714121	-69.446699	-61.786833	-176.408460
00404		0.270137	0.437188	-0.475321	0.714117	-69.458437	-61.788629	-176.386915
00405		0.270052	0.437286	-0.475227	0.714152	-69.454121	-61.793353	-176.372566
00406		0.269977	0.437419	-0.475095	0.714186	-69.445263	-61.802778	-176.359333
00407		0.269929	0.437549	-0.474948	0.714222	-69.430670	-61.814035	-176.352676
00408		0.269899	0.437675	-0.474798	0.714256	-69.413809	-61.826187	-176.349608
00409		0.269869	0.437826	-0.474633	0.714285	-69.396978	-61.841129	-176.344612
00410		0.269826	0.437989	-0.474470	0.714309	-69.383301	-61.856387	-176.335391
00411		0.269763	0.438147	-0.474331	0.714328	-69.375599	-61.869552	-176.320888
00412		0.269689	0.438305	-0.474183	0.714358	-69.366447	-61.881813	-176.306022
00413		0.269613	0.438475	-0.474047	0.714372	-69.362310	-61.895258	-176.286915
00414		0.269469	0.438661	-0.473873	0.714428	-69.354562	-61.905382	-176.261346
00415		0.269262	0.438869	-0.473672	0.714511	-69.346795	-61.913501	-176.227326
00416		0.269034	0.439088	-0.473430	0.714624	-69.331522	-61.921398	-176.194545
00417		0.268783	0.439318	-0.473170	0.714748	-69.314917	-61.928886	-176.159218
00418		0.268528	0.439559	-0.472882	0.714887	-69.293057	-61.937391	-176.125885
00419		0.268253	0.439813	-0.472593	0.715025	-69.274025	-61.945839	-176.087505
00420		0.268017	0.440018	-0.472317	0.715169	-69.248945	-61.951941	-176.060915
00421		0.267772	0.440207	-0.472099	0.715289	-69.235956	-61.955241	-176.027387
00422		0.267540	0.440387	-0.471905	0.715393	-69.227396	-61.958385	-175.993171
00423		0.267300	0.440537	-0.471779	0.715473	-69.231671	-61.957427	-175.952841
00424		0.267083	0.440646	-0.471722	0.715525	-69.245457	-61.953233	-175.912462
00425		0.266867	0.440717	-0.471715	0.715567	-69.266079	-61.944776	-175.871113
00426		0.266629	0.440808	-0.471706	0.715605	-69.290401	-61.936901	-175.823525
00427		0.266352	0.440927	-0.471632	0.715684	-69.304954	-61.929376	-175.775479
00428		0.266035	0.441088	-0.471453	0.715821	-69.301556	-61.924167	-175.730522
00429		0.265679	0.441276	-0.471209	0.715997	-69.288439	-61.919317	-175.685061
00430		0.265339	0.441473	-0.470951	0.716172	-69.272309	-61.916747	-175.642348
00431		0.265004	0.441688	-0.470720	0.716315	-69.265354	-61.916294	-175.593452
00432		0.264717	0.441858	-0.470578	0.716410	-69.271272	-61.914077	-175.545370
00433		0.264488	0.441975	-0.470517	0.716462	-69.286135	-61.909985	-175.502468
00434		0.264297	0.442069	-0.470491	0.716492	-69.304111	-61.905983	-175.463695
00435		0.264136	0.442115	-0.470534	0.716494	-69.330518	-61.898700	-175.426825
00436		0.264005	0.442125	-0.470639	0.716468	-69.365049	-61.889211	-175.391180
00437		0.263893	0.442098	-0.470780	0.716433	-69.401961	-61.877115	-175.359030
00438		0.263775	0.442037	-0.470977	0.716385	-69.447831	-61.860331	-175.323587
00439		0.263705	0.441940	-0.471208	0.716318	-69.494036	-61.843161	-175.296150
00440		0.263625	0.441861	-0.471429	0.716252	-69.540933	-61.827153	-175.265616
00441		0.263506	0.441811	-0.471578	0.716227	-69.576777	-61.811943	-175.235240
00442		0.263373	0.441803	-0.471664	0.716225	-69.603608	-61.800463	-175.205565
00443		0.263201	0.441842	-0.471654	0.716270	-69.616244	-61.791871	-175.176270
00444		0.262974	0.441934	-0.471548	0.716367	-69.615901	-61.785494	-175.144724
00445		0.262713	0.442071	-0.471360	0.716502	-69.603793	-61.781871	-175.113011
00446		0.262380	0.442260	-0.471085	0.716688	-69.581829	-61.779208	-175.075248
00447		0.262005	0.442487	-0.470740	0.716912	-69.550673	-61.777815	-175.035504
00448		0.261625	0.442702	-0.470355	0.717170	-69.508073	-61.775194	-175.002908
00449		0.261307	0.442854	-0.470056	0.717389	-69.473730	-61.769818	-174.977109
00450		0.261095	0.442927	-0.469900	0.717523	-69.457535	-61.762928	-174.958036
00451		0.260967	0.442942	-0.469874	0.717577	-69.460003	-61.755118	-174.941659
00452		0.260916	0.442909	-0.469943	0.717571	-69.474566	-61.747268	-174.930025
00453		0.260896	0.442881	-0.470019	0.717546	-69.490297	-61.742262	-174.920700
00454		0.260845	0.442879	-0.470036	0.717554	-69.496842	-61.738133	-174.911498
00455		0.260718	0.442952	-0.469996	0.717582	-69.504663	-61.736762	-174.887323
00456		0.260511	0.443052	-0.469883	0.717669	-69.503020	-61.732855	-174.858065
00457		0.260277	0.443167	-0.469762	0.717762	-69.502915	-61.728581	-174.823805
00458		0.260060	0.443273	-0.469652	0.717848	-69.503089	-61.724476	-174.791931
00459		0.259869	0.443341	-0.469583	0.717920	-69.506699	-61.718025	-174.763696
00460		0.259745	0.443367	-0.469552	0.717969	-69.509326	-61.711858	-174.746772
00461		0.259697	0.443364	-0.469614	0.717947	-69.526774	-61.707457	-174.731350
00462		0.259720	0.443309	-0.469740	0.717891	-69.548091	-61.702360	-174.725585
00463		0.259777	0.443237	-0.469905	0.717807	-69.574940	-61.697626	-174.721354
00464		0.259857	0.443132	-0.470119	0.717702	-69.607573	-61.690779	-174.718807
00465		0.259968	0.442989	-0.470381	0.717578	-69.644777	-61.681871	-174.719975
00466		0.260091	0.442822	-0.470644	0.717464	-69.677682	-61.671254	-174.726842
00467		0.260221	0.442645	-0.470897	0.717361	-69.706169	-61.660050	-174.737966
00468		0.260300	0.442497	-0.471130	0.717271	-69.736825	-61.648387	-174.739919
00469		0.260383	0.442341	-0.471383	0.717170	-69.771319	-61.636096	-174.740640
00470		0.260448	0.442209	-0.471613	0.717077	-69.804288	-61.625101	-174.738578
00471		0.260486	0.442103	-0.471844	0.716976	-69.843348	-61.614932	-174.727706
00472		0.260499	0.442007	-0.472019	0.716916	-69.870973	-61.604302	-174.720352
00473		0.260522	0.441905	-0.472193	0.716856	-69.897029	-61.593777	-174.715407
00474		0.260538	0.441783	-0.472368	0.716810	-69.920700	-61.580685	-174.712842
00475		0.260545	0.441650	-0.472542	0.716774	-69.942976	-61.565692	-174.710833
00476		0.260531	0.441522	-0.472732	0.716733	-69.970992	-61.549557	-174.702796
00477		0.260565	0.441340	-0.472937	0.716698	-69.991740	-61.531140	-174.708654
00478		0.260602	0.441164	-0.473149	0.716652	-70.015152	-61.513562	-174.712795
00479		0.260678	0.440976	-0.473373	0.716593	-70.037523	-61.497509	-174.722601
00480		0.260768	0.440773	-0.473598	0.716536	-70.057355	-61.480904	-174.736633
00481		0.260848	0.440584	-0.473806	0.716486	-70.075584	-61.465197	-174.749458
00482		0.260874	0.440441	-0.473953	0.716467	-70.088743	-61.450834	-174.755813
00483		0.260857	0.440323	-0.474058	0.716476	-70.097415	-61.436113	-174.758179
00484		0.260809	0.440228	-0.474132	0.716503	-70.103462	-61.421771	-174.757090
00485		0.260764	0.440162	-0.474201	0.716515	-70.112378	-61.410868	-174.752228
00486		0.260746	0.440066	-0.474273	0.716532	-70.116507	-61.398756	-174.755525
00487		0.260717	0.439997	-0.474318	0.716556	-70.118295	-61.388829	-174.756815
00488		0.260675	0.439949	-0.474323	0.716597	-70.114461	-61.380571	-174.758321
00489		0.260602	0.439912	-0.474289	0.716669	-70.103857	-61.371304	-174.759820
00490		0.260529	0.439877	-0.474225	0.716759	-70.086537	-61.362640	-174.765020
00491		0.260448	0.439835	-0.474175	0.716847	-70.071905	-61.352373	-174.768336
00492		0.260397	0.439790	-0.474130	0.716924	-70.056358	-61.344040	-174.775681
00493		0.260344	0.439713	-0.474136	0.716985	-70.048969	-61.331884	-174.780472
00494		0.260295	0.439637	-0.474186	0.717017	-70.051930	-61.319638	-174.779552
00495		0.260252	0.439555	-0.474272	0.717026	-70.062735	-61.307063	-174.775040
00496		0.260197	0.439495	-0.474341	0.717037	-70.073200	-61.296051	-174.767789
00497		0.260123	0.439476	-0.474363	0.717061	-70.079463	-61.288250	-174.757587
00498		0.260023	0.439491	-0.474291	0.717136	-70.068918	-61.282898	-174.752000
00499		0.259883	0.439567	-0.474133	0.717244	-70.048865	-61.281619	-174.742753
00500		0.259673	0.439699	-0.473904	0.717391	-70.023157	-61.281624	-174.724964
00501		0.259404	0.439868	-0.473614	0.717576	-69.991139	-61.281629	-174.701701
00502		0.259125	0.440002	-0.473337	0.717777	-69.957600	-61.277134	-174.680928
00503		0.258900	0.440087	-0.473127	0.717945	-69.930322	-61.270875	-174.666123
00504		0.258757	0.440078	-0.473065	0.718043	-69.920866	-61.259569	-174.657122
00505		0.258707	0.439997	-0.473144	0.718058	-69.930489	-61.246710	-174.652527
00506		0.258715	0.439887	-0.473308	0.718015	-69.953373	-61.234225	-174.648628
00507		0.258738	0.439784	-0.473482	0.717955	-69.979182	-61.223711	-174.643926
00508		0.258737	0.439709	-0.473618	0.717911	-70.001188	-61.214648	-174.636839
00509		0.258701	0.439673	-0.473685	0.717902	-70.013845	-61.207553	-174.628451
00510		0.258644	0.439697	-0.473658	0.717926	-70.013586	-61.206050	-174.620564
00511		0.258540	0.439740	-0.473557	0.718004	-70.000645	-61.203577	-174.613583
00512		0.258416	0.439807	-0.473410	0.718104	-69.981038	-61.202520	-174.606624
00513		0.258302	0.439886	-0.473260	0.718196	-69.962012	-61.203598	-174.599324
00514		0.258203	0.439929	-0.473143	0.718282	-69.944851	-61.201596	-174.595418
00515		0.258137	0.439952	-0.473094	0.718325	-69.939588	-61.199421	-174.589597
00516		0.258141	0.439913	-0.473128	0.718324	-69.941927	-61.195365	-174.591818
00517		0.258170	0.439874	-0.473259	0.718251	-69.966513	-61.192456	-174.583444
00518		0.258208	0.439822	-0.473406	0.718172	-69.992773	-61.188590	-174.576191
00519		0.258189	0.439806	-0.473515	0.718117	-70.017925	-61.184654	-174.560563
00520		0.258107	0.439835	-0.473542	0.718111	-70.032943	-61.181443	-174.540564
00521		0.257979	0.439909	-0.473479	0.718154	-70.035051	-61.180107	-174.519790
00522		0.257807	0.440029	-0.473341	0.718233	-70.028101	-61.181117	-174.495905
00523		0.257604	0.440153	-0.473176	0.718339	-70.016759	-61.180325	-174.470947
00524		0.257401	0.440295	-0.473008	0.718434	-70.007461	-61.181625	-174.443352
00525		0.257204	0.440362	-0.472880	0.718548	-69.996048	-61.175018	-174.423736
00526		0.257068	0.440404	-0.472846	0.718594	-70.000722	-61.169463	-174.403037
00527		0.256993	0.440360	-0.472905	0.718609	-70.012339	-61.158712	-174.391657
00528		0.256962	0.440285	-0.473043	0.718575	-70.036129	-61.147394	-174.380314
00529		0.256945	0.440195	-0.473206	0.718529	-70.063032	-61.135199	-174.369828
00530		0.256922	0.440106	-0.473340	0.718503	-70.083381	-61.122967	-174.362408
00531		0.256865	0.440040	-0.473423	0.718510	-70.096244	-61.111000	-174.354034
00532		0.256792	0.440018	-0.473472	0.718517	-70.108683	-61.102771	-174.340604
00533		0.256692	0.439976	-0.473512	0.718552	-70.116846	-61.090570	-174.328453
00534		0.256596	0.439935	-0.473594	0.718557	-70.135358	-61.078268	-174.310626
00535		0.256499	0.439886	-0.473691	0.718558	-70.156299	-61.065037	-174.291790
00536		0.256426	0.439811	-0.473823	0.718542	-70.180770	-61.050544	-174.275515
00537		0.256344	0.439734	-0.473934	0.718545	-70.200089	-61.035369	-174.261571
00538		0.256257	0.439663	-0.474031	0.718556	-70.216997	-61.020463	-174.248079
00539		0.256158	0.439596	-0.474108	0.718582	-70.230532	-61.005302	-174.234793
00540		0.256043	0.439558	-0.474171	0.718604	-70.245517	-60.992210	-174.216810
00541		0.255943	0.439510	-0.474223	0.718635	-70.255945	-60.979135	-174.203763
00542		0.255839	0.439458	-0.474245	0.718690	-70.258200	-60.965620	-174.195567
00543		0.255707	0.439430	-0.474274	0.718735	-70.267475	-60.952445	-174.178254
00544		0.255580	0.439401	-0.474288	0.718788	-70.272531	-60.939769	-174.164079
00545		0.255444	0.439376	-0.474326	0.718827	-70.284589	-60.926563	-174.144443
00546		0.255311	0.439339	-0.474374	0.718865	-70.297257	-60.912276	-174.125763
00547		0.255213	0.439272	-0.474474	0.718875	-70.315892	-60.897001	-174.109763
00548		0.255175	0.439149	-0.474658	0.718841	-70.343904	-60.879652	-174.099171
00549		0.255211	0.439004	-0.474879	0.718772	-70.373626	-60.865040	-174.097160
00550		0.255241	0.438841	-0.475095	0.718718	-70.399937	-60.848335	-174.097957
00551		0.255276	0.438702	-0.475280	0.718668	-70.422033	-60.834673	-174.099978
00552		0.255321	0.438558	-0.475441	0.718633	-70.437147	-60.821496	-174.107413
00553		0.255357	0.438428	-0.475585	0.718605	-70.450514	-60.809204	-174.113807
00554		0.255365	0.438307	-0.475709	0.718593	-70.462102	-60.796047	-174.117480
00555		0.255350	0.438210	-0.475826	0.718581	-70.476522	-60.783599	-174.115201
00556		0.255298	0.438134	-0.475935	0.718573	-70.493743	-60.770760	-174.105770
00557		0.255246	0.438069	-0.476055	0.718552	-70.515524	-60.758979	-174.092617
00558		0.255178	0.438039	-0.476147	0.718533	-70.536465	-60.750035	-174.075580
00559		0.255131	0.437995	-0.476242	0.718514	-70.555101	-60.740985	-174.063221
00560		0.255101	0.437970	-0.476326	0.718484	-70.572992	-60.735361	-174.051592
00561		0.255098	0.437956	-0.476398	0.718446	-70.588410	-60.733128	-174.043373
00562		0.255108	0.437966	-0.476444	0.718406	-70.600724	-60.734462	-174.036405
00563		0.255168	0.437966	-0.476458	0.718375	-70.601331	-60.738877	-174.042365
00564		0.255226	0.437990	-0.476440	0.718352	-70.597797	-60.745947	-174.048723
00565		0.255293	0.438024	-0.476425	0.718318	-70.595977	-60.754715	-174.054247
00566		0.255390	0.438033	-0.476423	0.718278	-70.592434	-60.763011	-174.065893
00567		0.255499	0.438042	-0.476429	0.718230	-70.590006	-60.772084	-174.078217
00568		0.255594	0.438036	-0.476461	0.718179	-70.592360	-60.778315	-174.087317
00569		0.255663	0.438051	-0.476492	0.718125	-70.598773	-60.784821	-174.089734
00570		0.255678	0.438105	-0.476498	0.718082	-70.607859	-60.791736	-174.081691
00571		0.255673	0.438183	-0.476438	0.718077	-70.605340	-60.800004	-174.076341
00572		0.255619	0.438281	-0.476363	0.718086	-70.604488	-60.806910	-174.063227
00573		0.255573	0.438394	-0.476233	0.718119	-70.592506	-60.816573	-174.056235
00574		0.255511	0.438500	-0.476094	0.718169	-70.577737	-60.824289	-174.049817
00575		0.255489	0.438575	-0.475990	0.718200	-70.564875	-60.831414	-174.048997
00576		0.255515	0.438622	-0.475920	0.718208	-70.553738	-60.838879	-174.054567
00577		0.255584	0.438627	-0.475890	0.718200	-70.543982	-60.844899	-174.067185
00578		0.255669	0.438624	-0.475871	0.718185	-70.534750	-60.851108	-174.081990
00579		0.255777	0.438611	-0.475864	0.718159	-70.526107	-60.857927	-174.099489
00580		0.255891	0.438623	-0.475826	0.718136	-70.513185	-60.868063	-174.118202
00581		0.255954	0.438664	-0.475731	0.718151	-70.493331	-60.877971	-174.133366
00582		0.255952	0.438720	-0.475643	0.718176	-70.480456	-60.884431	-174.136195
00583		0.255906	0.438782	-0.475536	0.718226	-70.466066	-60.888389	-174.134808
00584		0.255797	0.438842	-0.475454	0.718282	-70.460475	-60.887236	-174.121588
00585		0.255650	0.438878	-0.475404	0.718345	-70.461027	-60.880486	-174.102778
00586		0.255506	0.438896	-0.475379	0.718402	-70.464552	-60.871807	-174.083927
00587		0.255363	0.438904	-0.475359	0.718461	-70.467665	-60.862038	-174.066197
00588		0.255256	0.438915	-0.475293	0.718537	-70.458381	-60.855649	-174.059440
00589		0.255170	0.438938	-0.475230	0.718595	-70.450790	-60.852199	-174.052806
00590		0.255119	0.438999	-0.475122	0.718647	-70.436341	-60.855653	-174.051056
00591		0.255076	0.439047	-0.475027	0.718696	-70.422604	-60.858299	-174.050631
00592		0.255036	0.439080	-0.474949	0.718741	-70.410631	-60.859461	-174.050796
00593		0.255008	0.439106	-0.474914	0.718758	-70.407447	-60.860430	-174.047503
00594		0.254969	0.439102	-0.474945	0.718755	-70.415999	-60.856769	-174.038737
00595		0.254911	0.439094	-0.475012	0.718735	-70.433965	-60.851026	-174.022652
00596		0.254821	0.439088	-0.475096	0.718716	-70.457735	-60.842900	-173.999607
00597		0.254709	0.439116	-0.475125	0.718719	-70.474350	-60.837217	-173.975647
00598		0.254554	0.439223	-0.475049	0.718758	-70.479606	-60.837607	-173.947544
00599		0.254404	0.439384	-0.474870	0.718832	-70.467683	-60.844883	-173.925711
00600		0.254233	0.439598	-0.474556	0.718969	-70.432397	-60.857287	-173.910998
00601		0.254087	0.439833	-0.474167	0.719134	-70.380703	-60.874525	-173.906929
00602		0.253981	0.440054	-0.473793	0.719282	-70.328970	-60.893175	-173.908174
00603		0.253913	0.440232	-0.473503	0.719388	-70.288964	-60.909414	-173.910252
00604		0.253946	0.440317	-0.473347	0.719426	-70.262510	-60.922284	-173.922436
00605		0.254011	0.440345	-0.473323	0.719403	-70.257690	-60.930276	-173.929991
00606		0.254084	0.440390	-0.473325	0.719348	-70.261458	-60.940555	-173.931898
00607		0.254105	0.440452	-0.473274	0.719336	-70.257663	-60.949043	-173.931376
00608		0.254056	0.440583	-0.473126	0.719371	-70.243948	-60.960550	-173.923763
00609		0.253929	0.440758	-0.472868	0.719478	-70.213947	-60.971778	-173.913892
00610		0.253779	0.440957	-0.472579	0.719599	-70.181651	-60.984144	-173.900796
00611		0.253612	0.441137	-0.472324	0.719715	-70.155244	-60.992936	-173.884150
00612		0.253495	0.441255	-0.472123	0.719815	-70.130328	-60.998411	-173.876841
00613		0.253403	0.441329	-0.472059	0.719844	-70.130448	-60.999909	-173.861013
00614		0.253346	0.441347	-0.472066	0.719848	-70.137818	-60.997472	-173.849152
00615		0.253337	0.441348	-0.472104	0.719826	-70.147411	-60.996577	-173.842595
00616		0.253361	0.441345	-0.472147	0.719792	-70.156322	-60.997682	-173.840070
00617		0.253396	0.441352	-0.472177	0.719755	-70.162812	-61.000807	-173.839534
00618		0.253423	0.441392	-0.472142	0.719744	-70.159272	-61.007343	-173.841182
00619		0.253410	0.441470	-0.472053	0.719759	-70.150307	-61.015472	-173.838818
00620		0.253355	0.441575	-0.471943	0.719787	-70.142061	-61.023391	-173.829442
00621		0.253269	0.441679	-0.471834	0.719825	-70.135608	-61.028911	-173.815759
00622		0.253150	0.441791	-0.471728	0.719867	-70.132811	-61.032813	-173.795750
00623		0.252990	0.441892	-0.471621	0.719931	-70.130232	-61.032522	-173.771993
00624		0.252814	0.441979	-0.471518	0.720007	-70.127252	-61.029525	-173.748055
00625		0.252644	0.442083	-0.471420	0.720067	-70.127523	-61.028600	-173.721499
00626		0.252474	0.442193	-0.471287	0.720146	-70.120340	-61.028808	-173.698732
00627		0.252323	0.442312	-0.471147	0.720218	-70.111863	-61.031278	-173.678065
00628		0.252199	0.442431	-0.471020	0.720271	-70.105623	-61.035773	-173.658930
00629		0.252104	0.442563	-0.470866	0.720324	-70.092871	-61.044003	-173.645752
00630		0.252009	0.442682	-0.470716	0.720382	-70.079575	-61.050869	-173.633821
00631		0.251941	0.442807	-0.470611	0.720398	-70.076460	-61.059976	-173.618527
00632		0.251908	0.442891	-0.470561	0.720391	-70.078765	-61.066856	-173.606862
00633		0.251901	0.442941	-0.470545	0.720373	-70.082828	-61.071784	-173.599776
00634		0.251931	0.442962	-0.470557	0.720342	-70.087535	-61.076085	-173.598424
00635		0.251954	0.442979	-0.470591	0.720301	-70.097349	-61.079421	-173.593691
00636		0.251985	0.442984	-0.470621	0.720267	-70.103875	-61.082024	-173.592770
00637		0.252001	0.443042	-0.470642	0.720212	-70.117100	-61.089095	-173.582033
00638		0.251984	0.443076	-0.470637	0.720201	-70.121934	-61.091516	-173.574716
00639		0.251952	0.443150	-0.470569	0.720211	-70.118417	-61.097566	-173.567408
00640		0.251876	0.443243	-0.470471	0.720244	-70.112756	-61.102668	-173.555116
00641		0.251804	0.443343	-0.470376	0.720269	-70.108554	-61.108789	-173.541957
00642		0.251729	0.443440	-0.470272	0.720304	-70.101726	-61.114311	-173.530162
00643		0.251644	0.443565	-0.470131	0.720348	-70.091147	-61.122487	-173.517243
00644		0.251541	0.443736	-0.469899	0.720431	-70.066091	-61.135024	-173.507333
00645		0.251410	0.443931	-0.469593	0.720556	-70.028166	-61.148690	-173.500105
00646		0.251249	0.444158	-0.469216	0.720718	-69.979313	-61.164172	-173.493445
00647		0.251114	0.444366	-0.468876	0.720858	-69.935525	-61.179232	-173.488168
00648		0.250997	0.444540	-0.468608	0.720965	-69.903011	-61.191427	-173.480939
00649		0.250921	0.444674	-0.468439	0.721020	-69.886093	-61.201429	-173.472078
00650		0.250891	0.444760	-0.468344	0.721038	-69.877999	-61.209269	-173.466724
00651		0.250871	0.444838	-0.468298	0.721027	-69.879723	-61.216507	-173.457381
00652		0.250856	0.444909	-0.468228	0.721033	-69.874543	-61.223569	-173.453148
00653		0.250812	0.445022	-0.468120	0.721049	-69.867909	-61.233238	-173.443280
00654		0.250755	0.445108	-0.467990	0.721100	-69.852402	-61.239375	-173.439442
00655		0.250691	0.445195	-0.467853	0.721158	-69.835629	-61.245104	-173.435524
00656		0.250606	0.445273	-0.467707	0.721235	-69.816241	-61.248281	-173.431677
00657		0.250524	0.445345	-0.467552	0.721319	-69.793815	-61.251283	-173.430369
00658		0.250448	0.445411	-0.467417	0.721392	-69.775025	-61.253849	-173.428061
00659		0.250367	0.445467	-0.467318	0.721450	-69.763654	-61.254654	-173.421592
00660		0.250268	0.445513	-0.467216	0.721521	-69.750889	-61.253122	-173.414928
00661		0.250154	0.445580	-0.467054	0.721625	-69.727488	-61.253207	-173.411208
00662		0.250001	0.445638	-0.466891	0.721748	-69.704507	-61.249419	-173.403709
00663		0.249846	0.445697	-0.466700	0.721888	-69.674932	-61.246005	-173.399828
00664		0.249657	0.445763	-0.466518	0.722030	-69.650386	-61.240583	-173.388849
00665		0.249471	0.445815	-0.466369	0.722159	-69.631587	-61.233571	-173.375895
00666		0.249291	0.445859	-0.466241	0.722276	-69.616402	-61.226150	-173.362023
00667		0.249111	0.445913	-0.466092	0.722401	-69.597588	-61.219791	-173.349568
00668		0.248907	0.445951	-0.465926	0.722555	-69.573305	-61.210228	-173.339129
00669		0.248743	0.446016	-0.465780	0.722666	-69.556157	-61.206367	-173.326444
00670		0.248602	0.446028	-0.465671	0.722777	-69.538641	-61.198164	-173.320770
00671		0.248486	0.446026	-0.465603	0.722862	-69.527766	-61.189926	-173.314820
00672		0.248383	0.446011	-0.465560	0.722934	-69.520028	-61.181101	-173.309653
00673		0.248278	0.446008	-0.465505	0.723008	-69.511540	-61.173411	-173.303606
00674		0.248154	0.446006	-0.465436	0.723096	-69.500968	-61.164708	-173.296677
00675		0.247997	0.446030	-0.465352	0.723189	-69.492096	-61.156367	-173.283275
00676		0.247813	0.446038	-0.465244	0.723316	-69.476611	-61.144616	-173.271967
00677		0.247615	0.446074	-0.465150	0.723423	-69.469113	-61.134642	-173.252384
00678		0.247398	0.446078	-0.465034	0.723569	-69.452693	-61.119976	-173.238540
00679		0.247174	0.446119	-0.464929	0.723688	-69.444694	-61.108687	-173.215961
00680		0.246918	0.446180	-0.464778	0.723835	-69.430552	-61.097664	-173.192030
00681		0.246656	0.446269	-0.464576	0.723999	-69.408637	-61.089598	-173.169783
00682		0.246389	0.446388	-0.464345	0.724164	-69.384521	-61.084730	-173.145842
00683		0.246126	0.446521	-0.464102	0.724328	-69.359564	-61.081640	-173.121833
00684		0.245882	0.446635	-0.463876	0.724485	-69.334815	-61.077927	-173.101111
00685		0.245666	0.446736	-0.463675	0.724625	-69.312696	-61.074586	-173.082941
00686		0.245500	0.446803	-0.463484	0.724761	-69.285448	-61.071256	-173.075878
00687		0.245348	0.446879	-0.463346	0.724855	-69.271360	-61.069445	-173.061782
00688		0.245256	0.446930	-0.463237	0.724924	-69.257611	-61.069087	-173.055970
00689		0.245181	0.446982	-0.463135	0.724982	-69.244762	-61.070110	-173.051426
00690		0.245089	0.447073	-0.463014	0.725034	-69.234306	-61.074153	-173.040475
00691		0.244961	0.447177	-0.462861	0.725111	-69.219882	-61.077263	-173.026935
00692		0.244795	0.447294	-0.462699	0.725199	-69.206885	-61.078935	-173.007518
00693		0.244604	0.447390	-0.462567	0.725288	-69.199843	-61.076315	-172.983417
00694		0.244424	0.447466	-0.462491	0.725350	-69.202081	-61.071856	-172.956900
00695		0.244220	0.447511	-0.462445	0.725420	-69.208418	-61.062015	-172.927683
00696		0.244029	0.447539	-0.462409	0.725490	-69.213789	-61.051259	-172.901750
00697		0.243876	0.447524	-0.462435	0.725535	-69.225265	-61.038122	-172.879899
00698		0.243739	0.447491	-0.462492	0.725565	-69.240899	-61.023913	-172.858619
00699		0.243629	0.447419	-0.462569	0.725597	-69.253964	-61.007434	-172.844922
00700		0.243548	0.447368	-0.462641	0.725610	-69.267606	-60.995281	-172.832286
00701		0.243449	0.447296	-0.462714	0.725641	-69.279025	-60.979554	-172.820801
00702		0.243319	0.447224	-0.462805	0.725671	-69.296429	-60.961462	-172.802483
00703		0.243178	0.447163	-0.462862	0.725719	-69.307883	-60.943923	-172.785523
00704		0.243029	0.447117	-0.462902	0.725772	-69.317809	-60.927653	-172.767406
00705		0.242872	0.447083	-0.462945	0.725818	-69.330913	-60.912086	-172.745630
00706		0.242748	0.447035	-0.463005	0.725851	-69.344129	-60.897216	-172.728473
00707		0.242617	0.446984	-0.463065	0.725888	-69.357134	-60.881492	-172.710931
00708		0.242502	0.446915	-0.463097	0.725948	-69.360047	-60.865434	-172.702467
00709		0.242371	0.446862	-0.463125	0.726007	-69.365057	-60.849737	-172.689797
00710		0.242250	0.446757	-0.463155	0.726092	-69.362400	-60.829472	-172.686846
00711		0.242161	0.446664	-0.463179	0.726165	-69.358190	-60.812729	-172.687311
00712		0.242125	0.446554	-0.463212	0.726223	-69.351143	-60.798042	-172.696311
00713		0.242124	0.446447	-0.463236	0.726273	-69.340824	-60.786456	-172.710738
00714		0.242127	0.446348	-0.463270	0.726312	-69.333559	-60.775771	-172.723323
00715		0.242103	0.446283	-0.463263	0.726364	-69.323145	-60.767223	-172.732055
00716		0.242049	0.446233	-0.463208	0.726448	-69.305149	-60.758454	-172.740790
00717		0.241962	0.446220	-0.463149	0.726523	-69.293258	-60.751243	-172.739518
00718		0.241862	0.446191	-0.463117	0.726594	-69.286264	-60.741198	-172.735145
00719		0.241756	0.446167	-0.463092	0.726660	-69.281916	-60.730977	-172.728306
00720		0.241658	0.446141	-0.463075	0.726719	-69.278897	-60.721202	-172.721616
00721		0.241577	0.446107	-0.463063	0.726775	-69.274948	-60.711737	-172.717965
00722		0.241510	0.446091	-0.463025	0.726831	-69.266608	-60.705450	-172.717073
00723		0.241476	0.446078	-0.462972	0.726884	-69.253849	-60.702137	-172.721846
00724		0.241483	0.446071	-0.462896	0.726934	-69.234281	-60.702622	-172.734606
00725		0.241520	0.446056	-0.462854	0.726958	-69.220023	-60.704162	-172.748099
00726		0.241569	0.445996	-0.462844	0.726985	-69.206149	-60.701541	-172.766296
00727		0.241639	0.445933	-0.462892	0.726970	-69.204465	-60.699560	-172.779678
00728		0.241694	0.445865	-0.462984	0.726935	-69.213384	-60.695484	-172.785740
00729		0.241735	0.445811	-0.463072	0.726898	-69.224321	-60.691944	-172.788082
00730		0.241737	0.445773	-0.463144	0.726874	-69.235664	-60.687347	-172.784715
00731		0.241690	0.445761	-0.463188	0.726870	-69.246352	-60.682084	-172.774469
00732		0.241594	0.445787	-0.463214	0.726870	-69.261338	-60.677528	-172.753339
00733		0.241538	0.445779	-0.463221	0.726888	-69.264645	-60.672516	-172.746033
00734		0.241543	0.445759	-0.463253	0.726879	-69.269060	-60.670451	-172.745577
00735		0.241558	0.445731	-0.463311	0.726854	-69.277831	-60.667902	-172.744306
00736		0.241595	0.445735	-0.463348	0.726816	-69.285401	-60.670731	-172.743584
00737		0.241637	0.445733	-0.463355	0.726799	-69.284632	-60.673544	-172.748641
00738		0.241683	0.445729	-0.463374	0.726773	-69.286501	-60.676325	-172.752760
00739		0.241735	0.445688	-0.463459	0.726727	-69.297859	-60.674957	-172.754917
00740		0.241795	0.445606	-0.463606	0.726663	-69.317615	-60.669286	-172.756382
00741		0.241865	0.445491	-0.463817	0.726576	-69.346957	-60.660106	-172.755890
00742		0.241905	0.445376	-0.464090	0.726459	-69.392550	-60.648169	-172.742853
00743		0.241938	0.445254	-0.464325	0.726372	-69.428729	-60.635357	-172.734909
00744		0.241997	0.445173	-0.464532	0.726271	-69.462712	-60.628978	-172.727909
00745		0.242071	0.445125	-0.464649	0.726200	-69.479793	-60.628199	-172.729629
00746		0.242142	0.445122	-0.464683	0.726157	-69.483836	-60.632809	-172.735156
00747		0.242242	0.445148	-0.464641	0.726133	-69.473073	-60.643478	-172.749985
00748		0.242367	0.445159	-0.464595	0.726115	-69.457461	-60.654295	-172.771564
00749		0.242502	0.445135	-0.464591	0.726088	-69.446150	-60.661741	-172.794407
00750		0.242701	0.445061	-0.464682	0.726008	-69.447025	-60.667715	-172.821041
00751		0.242943	0.444914	-0.464881	0.725890	-69.460089	-60.667997	-172.851022
00752		0.243217	0.444730	-0.465148	0.725739	-69.482728	-60.666171	-172.881693
00753		0.243484	0.444570	-0.465431	0.725567	-69.512803	-60.666224	-172.905406
00754		0.243715	0.444449	-0.465672	0.725409	-69.540554	-60.668062	-172.923579
00755		0.243919	0.444387	-0.465833	0.725275	-69.559813	-60.675060	-172.939024
00756		0.244104	0.444366	-0.465917	0.725172	-69.567422	-60.685663	-172.956025
00757		0.244275	0.444384	-0.465920	0.725100	-69.562729	-60.700302	-172.975509
00758		0.244442	0.444392	-0.465886	0.725061	-69.547464	-60.713838	-173.001672
00759		0.244618	0.444419	-0.465789	0.725048	-69.519743	-60.730638	-173.034538
00760		0.244819	0.444432	-0.465681	0.725041	-69.485982	-60.747927	-173.074578
00761		0.245049	0.444419	-0.465587	0.725032	-69.450057	-60.764471	-173.121211
00762		0.245328	0.444400	-0.465541	0.724979	-69.422272	-60.783544	-173.168852
00763		0.245630	0.444379	-0.465492	0.724921	-69.392341	-60.804031	-173.220278
00764		0.245880	0.444400	-0.465458	0.724845	-69.374733	-60.825107	-173.255736
00765		0.246105	0.444420	-0.465370	0.724813	-69.345537	-60.844720	-173.295241
00766		0.246248	0.444489	-0.465241	0.724805	-69.317877	-60.863852	-173.321342
00767		0.246292	0.444588	-0.465021	0.724871	-69.277581	-60.879599	-173.341762
00768		0.246280	0.444718	-0.464737	0.724977	-69.229769	-60.895219	-173.358106
00769		0.246239	0.444867	-0.464413	0.725107	-69.176452	-60.910938	-173.373214
00770		0.246251	0.445011	-0.464072	0.725233	-69.115779	-60.930338	-173.398663
00771		0.246309	0.445154	-0.463759	0.725326	-69.059017	-60.952683	-173.426890
00772		0.246431	0.445290	-0.463463	0.725390	-69.002238	-60.978908	-173.462573
00773		0.246573	0.445433	-0.463160	0.725447	-68.943679	-61.007418	-173.500909
00774		0.246746	0.445559	-0.462859	0.725503	-68.881329	-61.036258	-173.546245
00775		0.246947	0.445630	-0.462573	0.725574	-68.812811	-61.061241	-173.602455
00776		0.247156	0.445658	-0.462356	0.725623	-68.754077	-61.081463	-173.657260
00777		0.247380	0.445629	-0.462198	0.725666	-68.699676	-61.096200	-173.715783
00778		0.247586	0.445564	-0.462113	0.725690	-68.658693	-61.105126	-173.767298
00779		0.247771	0.445477	-0.462082	0.725699	-68.628517	-61.109716	-173.811797
00780		0.247927	0.445382	-0.462096	0.725696	-68.609371	-61.110829	-173.847329
00781		0.248040	0.445289	-0.462118	0.725701	-68.594703	-61.108956	-173.875533
00782		0.248126	0.445227	-0.462113	0.725712	-68.579875	-61.108685	-173.898391
00783		0.248158	0.445175	-0.462091	0.725747	-68.564853	-61.105667	-173.914820
00784		0.248187	0.445104	-0.462094	0.725779	-68.553392	-61.100104	-173.930267
00785		0.248226	0.445006	-0.462135	0.725799	-68.546625	-61.092088	-173.946170
00786		0.248294	0.444889	-0.462206	0.725803	-68.542690	-61.083906	-173.964975
00787		0.248371	0.444730	-0.462344	0.725786	-68.547985	-61.071385	-173.982702
00788		0.248490	0.444561	-0.462504	0.725747	-68.554994	-61.060676	-174.004576
00789		0.248567	0.444400	-0.462658	0.725721	-68.564127	-61.047759	-174.020184
00790		0.248613	0.444259	-0.462791	0.725706	-68.572630	-61.034970	-174.031223
00791		0.248650	0.444156	-0.462905	0.725684	-68.582761	-61.025582	-174.037352
00792		0.248610	0.444086	-0.462964	0.725703	-68.588496	-61.014739	-174.035177
00793		0.248530	0.444067	-0.462978	0.725734	-68.593157	-61.006653	-174.025238
00794		0.248458	0.444045	-0.462968	0.725778	-68.591309	-60.999088	-174.020319
00795		0.248369	0.444030	-0.462985	0.725806	-68.597719	-60.990884	-174.008141
00796		0.248309	0.444018	-0.462999	0.725825	-68.602610	-60.984991	-173.999689
00797		0.248275	0.444010	-0.463053	0.725808	-68.615974	-60.981160	-173.988896
00798		0.248232	0.443987	-0.463102	0.725805	-68.626548	-60.975188	-173.979788
00799		0.248153	0.443991	-0.463171	0.725786	-68.647834	-60.969132	-173.958462
00800		0.248074	0.443985	-0.463240	0.725772	-68.667709	-60.962157	-173.938754
00801		0.248018	0.443936	-0.463340	0.725757	-68.687407	-60.952002	-173.925043
00802		0.248001	0.443855	-0.463499	0.725712	-68.714247	-60.940708	-173.913777
00803		0.248019	0.443758	-0.463689	0.725643	-68.744567	-60.930092	-173.905566
00804		0.248061	0.443680	-0.463897	0.725544	-68.780726	-60.923009	-173.895025
00805		0.248071	0.443600	-0.464062	0.725483	-68.808095	-60.913819	-173.886223
00806		0.248067	0.443575	-0.464160	0.725437	-68.828131	-60.910049	-173.876018
00807		0.248001	0.443574	-0.464218	0.725424	-68.845077	-60.904507	-173.859103
00808		0.247903	0.443590	-0.464264	0.725418	-68.863708	-60.898750	-173.836360
00809		0.247814	0.443607	-0.464310	0.725408	-68.881913	-60.893548	-173.814743
00810		0.247730	0.443612	-0.464352	0.725407	-68.897084	-60.887542	-173.796498
00811		0.247646	0.443632	-0.464381	0.725405	-68.911264	-60.883187	-173.777499
00812		0.247574	0.443659	-0.464399	0.725402	-68.923350	-60.880634	-173.760536
00813		0.247535	0.443659	-0.464415	0.725404	-68.929305	-60.877679	-173.752869
00814		0.247533	0.443653	-0.464452	0.725386	-68.937161	-60.876527	-173.748495
00815		0.247563	0.443613	-0.464499	0.725369	-68.941140	-60.874091	-173.752511
00816		0.247615	0.443558	-0.464580	0.725334	-68.949540	-60.871339	-173.757514
00817		0.247673	0.443483	-0.464711	0.725276	-68.966914	-60.866436	-173.759531
00818		0.247740	0.443377	-0.464896	0.725198	-68.992135	-60.858563	-173.760354
00819		0.247820	0.443261	-0.465086	0.725120	-69.016303	-60.850383	-173.763921
00820		0.247896	0.443145	-0.465261	0.725054	-69.036967	-60.842026	-173.769114
00821		0.247953	0.443067	-0.465410	0.724986	-69.058097	-60.836708	-173.769092
00822		0.247976	0.443018	-0.465478	0.724964	-69.066063	-60.832577	-173.770713
00823		0.247977	0.443018	-0.465473	0.724967	-69.064678	-60.832669	-173.771708
00824		0.247974	0.443021	-0.465445	0.724984	-69.058739	-60.833027	-173.774461
00825		0.248017	0.442991	-0.465426	0.725001	-69.047339	-60.833106	-173.788210
00826		0.248125	0.442908	-0.465482	0.724978	-69.043000	-60.831819	-173.808853
00827		0.248312	0.442773	-0.465601	0.724920	-69.042035	-60.830177	-173.840180
00828		0.248500	0.442627	-0.465793	0.724822	-69.056533	-60.826800	-173.863493
00829		0.248696	0.442440	-0.465995	0.724738	-69.067380	-60.819597	-173.892835
00830		0.248881	0.442294	-0.466223	0.724617	-69.091078	-60.815724	-173.910377
00831		0.249054	0.442158	-0.466395	0.724530	-69.103400	-60.812542	-173.932375
00832		0.249195	0.442068	-0.466529	0.724450	-69.114981	-60.812270	-173.947901
00833		0.249302	0.441998	-0.466616	0.724400	-69.119916	-60.811886	-173.962102
00834		0.249404	0.441957	-0.466653	0.724366	-69.117667	-60.814752	-173.977566
00835		0.249528	0.441903	-0.466698	0.724328	-69.113939	-60.817716	-173.997299
00836		0.249662	0.441836	-0.466793	0.724261	-69.120267	-60.819730	-174.013254
00837		0.249819	0.441744	-0.466896	0.724197	-69.123283	-60.820723	-174.035562
00838		0.249980	0.441629	-0.467000	0.724144	-69.122925	-60.819444	-174.062220
00839		0.250142	0.441545	-0.467126	0.724058	-69.132765	-60.821465	-174.080420
00840		0.250286	0.441471	-0.467227	0.723989	-69.138535	-60.823287	-174.098400
00841		0.250403	0.441423	-0.467289	0.723937	-69.140442	-60.826322	-174.113636
00842		0.250484	0.441411	-0.467328	0.723891	-69.143844	-60.830752	-174.121250
00843		0.250540	0.441391	-0.467365	0.723860	-69.146994	-60.832427	-174.127057
00844		0.250575	0.441395	-0.467439	0.723798	-69.163734	-60.834789	-174.120579
00845		0.250605	0.441367	-0.467519	0.723752	-69.177395	-60.833476	-174.118061
00846		0.250624	0.441337	-0.467622	0.723697	-69.196747	-60.830848	-174.111131
00847		0.250638	0.441321	-0.467739	0.723628	-69.221731	-60.829086	-174.099223
00848		0.250635	0.441326	-0.467808	0.723580	-69.239239	-60.828967	-174.088273
00849		0.250619	0.441352	-0.467816	0.723565	-69.245864	-60.830419	-174.080640
00850		0.250592	0.441398	-0.467778	0.723571	-69.244907	-60.833599	-174.074633
00851		0.250546	0.441449	-0.467734	0.723584	-69.244197	-60.836122	-174.066053
00852		0.250483	0.441518	-0.467681	0.723598	-69.245009	-60.839229	-174.053310
00853		0.250402	0.441584	-0.467685	0.723584	-69.259897	-60.840171	-174.030789
00854		0.250303	0.441653	-0.467730	0.723546	-69.286118	-60.839910	-173.999348
00855		0.250207	0.441689	-0.467848	0.723481	-69.324739	-60.835621	-173.963533
00856		0.250095	0.441736	-0.467977	0.723408	-69.368355	-60.831247	-173.922263
00857		0.249967	0.441809	-0.468091	0.723334	-69.413201	-60.828637	-173.876416
00858		0.249837	0.441904	-0.468181	0.723263	-69.455475	-60.828279	-173.830267
00859		0.249754	0.441999	-0.468232	0.723201	-69.486210	-60.831840	-173.795815
00860		0.249712	0.442105	-0.468306	0.723102	-69.522276	-60.839434	-173.761712
00861		0.249746	0.442200	-0.468346	0.723007	-69.544367	-60.851667	-173.744848
00862		0.249805	0.442267	-0.468412	0.722902	-69.567584	-60.862623	-173.732335
00863		0.249920	0.442313	-0.468510	0.722771	-69.592473	-60.875213	-173.726339
00864		0.250036	0.442343	-0.468595	0.722657	-69.611624	-60.886282	-173.725127
00865		0.250129	0.442351	-0.468690	0.722559	-69.631139	-60.893274	-173.722996
00866		0.250211	0.442348	-0.468789	0.722467	-69.650633	-60.898174	-173.720590
00867		0.250271	0.442353	-0.468908	0.722366	-69.677164	-60.902140	-173.710951
00868		0.250325	0.442378	-0.469009	0.722267	-69.702405	-60.907901	-173.700043
00869		0.250316	0.442427	-0.469029	0.722227	-69.715316	-60.912294	-173.687595
00870		0.250285	0.442538	-0.468979	0.722202	-69.721590	-60.922270	-173.671657
00871		0.250282	0.442624	-0.468877	0.722217	-69.710102	-60.931983	-173.671240
00872		0.250312	0.442723	-0.468732	0.722240	-69.688575	-60.946102	-173.679219
00873		0.250404	0.442770	-0.468615	0.722255	-69.662956	-60.958908	-173.700425
00874		0.250582	0.442754	-0.468582	0.722225	-69.643559	-60.970706	-173.732067
00875		0.250804	0.442709	-0.468559	0.722191	-69.620176	-60.982640	-173.773127
00876		0.251012	0.442634	-0.468538	0.722178	-69.593408	-60.990298	-173.817070
00877		0.251198	0.442573	-0.468523	0.722160	-69.571264	-60.997851	-173.854924
00878		0.251384	0.442521	-0.468516	0.722131	-69.552521	-61.006198	-173.889986
00879		0.251491	0.442496	-0.468492	0.722125	-69.537412	-61.011590	-173.912353
00880		0.251539	0.442516	-0.468437	0.722132	-69.524727	-61.017855	-173.923317
00881		0.251527	0.442546	-0.468363	0.722166	-69.511890	-61.020766	-173.927219
00882		0.251480	0.442575	-0.468291	0.722211	-69.501375	-61.020910	-173.926029
00883		0.251461	0.442574	-0.468219	0.722265	-69.484592	-61.020025	-173.933960
00884		0.251466	0.442535	-0.468253	0.722265	-69.486836	-61.015979	-173.936281
00885		0.251549	0.442447	-0.468344	0.722231	-69.491337	-61.011994	-173.949527
00886		0.251690	0.442329	-0.468500	0.722153	-69.504253	-61.008541	-173.966314
00887		0.251840	0.442193	-0.468642	0.722092	-69.510472	-61.004005	-173.989652
00888		0.251985	0.442081	-0.468748	0.722041	-69.511838	-61.001906	-174.013221
00889		0.252127	0.441961	-0.468844	0.722003	-69.509877	-60.998909	-174.039095
00890		0.252251	0.441844	-0.468949	0.721963	-69.511387	-60.994800	-174.060849
00891		0.252328	0.441725	-0.469063	0.721934	-69.517213	-60.986897	-174.075040
00892		0.252384	0.441638	-0.469179	0.721893	-69.529273	-60.980790	-174.080893
00893		0.252408	0.441543	-0.469287	0.721872	-69.539925	-60.971575	-174.084697
00894		0.252439	0.441430	-0.469427	0.721840	-69.555136	-60.960674	-174.088098
00895		0.252517	0.441315	-0.469598	0.721771	-69.575483	-60.952809	-174.093610
00896		0.252622	0.441217	-0.469768	0.721684	-69.596575	-60.948747	-174.100256
00897		0.252710	0.441140	-0.469877	0.721630	-69.606828	-60.946191	-174.109729
00898		0.252784	0.441105	-0.469924	0.721594	-69.609304	-60.947577	-174.118973
00899		0.252828	0.441089	-0.469941	0.721577	-69.608984	-60.949072	-174.125141
00900		0.252885	0.441077	-0.469906	0.721587	-69.595876	-60.952316	-174.139932
00901		0.252956	0.441059	-0.469924	0.721562	-69.593721	-60.955468	-174.150219
00902		0.253007	0.440992	-0.469971	0.721555	-69.592469	-60.951737	-174.161806
00903		0.253037	0.440934	-0.470063	0.721519	-69.604770	-60.947128	-174.162333
00904		0.253049	0.440881	-0.470175	0.721474	-69.623188	-60.941422	-174.157052
00905		0.253024	0.440878	-0.470227	0.721451	-69.636505	-60.938818	-174.146767
00906		0.252943	0.440904	-0.470201	0.721481	-69.638222	-60.935773	-174.134975
00907		0.252852	0.440962	-0.470132	0.721522	-69.634811	-60.935750	-174.122601
00908		0.252785	0.441039	-0.470000	0.721584	-69.617772	-60.940034	-174.119384
00909		0.252682	0.441104	-0.469894	0.721650	-69.606991	-60.940211	-174.109490
00910		0.252651	0.441148	-0.469818	0.721683	-69.596873	-60.943213	-174.108659
00911		0.252676	0.441135	-0.469822	0.721681	-69.594407	-60.943558	-174.113806
00912		0.252724	0.441099	-0.469855	0.721664	-69.594709	-60.943093	-174.121656
00913		0.252779	0.441067	-0.469881	0.721647	-69.593373	-60.943524	-174.130822
00914		0.252822	0.441036	-0.469901	0.721638	-69.591378	-60.943220	-174.139070
00915		0.252828	0.441016	-0.469904	0.721646	-69.589014	-60.941606	-174.142679
00916		0.252800	0.440997	-0.469894	0.721674	-69.584995	-60.937567	-174.143544
00917		0.252767	0.441001	-0.469899	0.721680	-69.588372	-60.935468	-174.137719
00918		0.252738	0.440988	-0.469934	0.721675	-69.596394	-60.931620	-174.130956
00919		0.252740	0.440954	-0.469970	0.721672	-69.599898	-60.927875	-174.131776
00920		0.252723	0.440938	-0.470019	0.721656	-69.610173	-60.924537	-174.125215
00921		0.252704	0.440929	-0.470031	0.721660	-69.612604	-60.922032	-174.122514
00922		0.252673	0.440950	-0.470046	0.721648	-69.621012	-60.921862	-174.112511
00923		0.252633	0.440966	-0.470044	0.721653	-69.625039	-60.920608	-174.104649
00924		0.252606	0.440990	-0.470015	0.721667	-69.623071	-60.921368	-174.100922
00925		0.252521	0.441000	-0.470000	0.721701	-69.625006	-60.916221	-174.089916
00926		0.252451	0.441021	-0.469994	0.721717	-69.630152	-60.913271	-174.077819
00927		0.252392	0.441016	-0.469988	0.721744	-69.630918	-60.908411	-174.071373
00928		0.252355	0.441036	-0.469944	0.721773	-69.624997	-60.908216	-174.069385
00929		0.252341	0.441076	-0.469865	0.721806	-69.612708	-60.911975	-174.071856
00930		0.252333	0.441146	-0.469744	0.721844	-69.594313	-60.919910	-174.076273
00931		0.252341	0.441245	-0.469600	0.721875	-69.573963	-60.932224	-174.081234
00932		0.252331	0.441360	-0.469416	0.721928	-69.547284	-60.945220	-174.086740
00933		0.252282	0.441501	-0.469187	0.722007	-69.515644	-60.958484	-174.088842
00934		0.252238	0.441611	-0.468974	0.722094	-69.482832	-60.968675	-174.094699
00935		0.252201	0.441674	-0.468828	0.722163	-69.459005	-60.973893	-174.099755
00936		0.252155	0.441722	-0.468695	0.722236	-69.436321	-60.976655	-174.104377
00937		0.252109	0.441758	-0.468582	0.722303	-69.416616	-60.978003	-174.108161
00938		0.252075	0.441799	-0.468469	0.722363	-69.397358	-60.980858	-174.112486
00939		0.252038	0.441844	-0.468326	0.722441	-69.371301	-60.984067	-174.120382
00940		0.251993	0.441916	-0.468177	0.722509	-69.348483	-60.989649	-174.123199
00941		0.251951	0.441987	-0.468033	0.722574	-69.326409	-60.995293	-174.126034
00942		0.251905	0.442035	-0.467900	0.722647	-69.303738	-60.998057	-174.130644
00943		0.251879	0.442073	-0.467794	0.722701	-69.285061	-61.001016	-174.135865
00944		0.251843	0.442084	-0.467710	0.722761	-69.268297	-61.000221	-174.140978
00945		0.251796	0.442087	-0.467637	0.722823	-69.253511	-60.997660	-174.144327
00946		0.251756	0.442096	-0.467597	0.722858	-69.247133	-60.995939	-174.143151
00947		0.251684	0.442104	-0.467557	0.722904	-69.242257	-60.991797	-174.137690
00948		0.251611	0.442138	-0.467518	0.722934	-69.241672	-60.990284	-174.127412
00949		0.251513	0.442169	-0.467405	0.723021	-69.224076	-60.987358	-174.124806
00950		0.251372	0.442268	-0.467238	0.723118	-69.205699	-60.988826	-174.112601
00951		0.251212	0.442390	-0.467009	0.723247	-69.176670	-60.991870	-174.102877
00952		0.251070	0.442499	-0.466800	0.723365	-69.149647	-60.994726	-174.094976
00953		0.250977	0.442574	-0.466674	0.723432	-69.135459	-60.996946	-174.087330
00954		0.250919	0.442617	-0.466644	0.723445	-69.137627	-60.997487	-174.076398
00955		0.250896	0.442592	-0.466710	0.723425	-69.151051	-60.992595	-174.068031
00956		0.250882	0.442551	-0.466819	0.723386	-69.171813	-60.986183	-174.057578
00957		0.250840	0.442533	-0.466918	0.723347	-69.195093	-60.980346	-174.040834
00958		0.250749	0.442588	-0.466959	0.723319	-69.218041	-60.979158	-174.013151
00959		0.250627	0.442678	-0.466911	0.723337	-69.226035	-60.980122	-173.988271
00960		0.250470	0.442825	-0.466824	0.723357	-69.235090	-60.985026	-173.954479
00961		0.250312	0.442966	-0.466770	0.723361	-69.251274	-60.988712	-173.916834
00962		0.250162	0.443098	-0.466760	0.723338	-69.276464	-60.991921	-173.875476
00963		0.250044	0.443197	-0.466799	0.723293	-69.306927	-60.993387	-173.837057
00964		0.249945	0.443272	-0.466891	0.723222	-69.345344	-60.993235	-173.797834
00965		0.249864	0.443348	-0.467009	0.723127	-69.389588	-60.994314	-173.757115
00966		0.249815	0.443406	-0.467131	0.723030	-69.430122	-60.995842	-173.723515
00967		0.249752	0.443456	-0.467214	0.722967	-69.461111	-60.995745	-173.694500
00968		0.249674	0.443561	-0.467231	0.722919	-69.484960	-61.001057	-173.663821
00969		0.249582	0.443689	-0.467169	0.722912	-69.494141	-61.008345	-173.638385
00970		0.249473	0.443839	-0.467066	0.722924	-69.497323	-61.017181	-173.612952
00971		0.249354	0.443988	-0.466938	0.722957	-69.495035	-61.025329	-173.589695
00972		0.249262	0.444138	-0.466804	0.722983	-69.490126	-61.035631	-173.570712
00973		0.249202	0.444269	-0.466696	0.722992	-69.487090	-61.046096	-173.555750
00974		0.249169	0.444388	-0.466589	0.723000	-69.480871	-61.057219	-173.546302
00975		0.249175	0.444485	-0.466472	0.723014	-69.467220	-61.069127	-173.547248
00976		0.249214	0.444589	-0.466342	0.723020	-69.449767	-61.084236	-173.553364
00977		0.249272	0.444685	-0.466200	0.723032	-69.427180	-61.100066	-173.565258
00978		0.249323	0.444778	-0.466045	0.723058	-69.401054	-61.115100	-173.578761
00979		0.249380	0.444864	-0.465880	0.723091	-69.371453	-61.129975	-173.595489
00980		0.249428	0.444917	-0.465774	0.723111	-69.351215	-61.140085	-173.608397
00981		0.249488	0.444916	-0.465716	0.723128	-69.334064	-61.145022	-173.624984
00982		0.249569	0.444924	-0.465670	0.723124	-69.320129	-61.152273	-173.641252
00983		0.249635	0.444931	-0.465616	0.723132	-69.304570	-61.158367	-173.656972
00984		0.249709	0.444941	-0.465541	0.723149	-69.284322	-61.165506	-173.675997
00985		0.249761	0.444960	-0.465448	0.723179	-69.261863	-61.172207	-173.693379
00986		0.249828	0.444978	-0.465332	0.723220	-69.232964	-61.180070	-173.716158
00987		0.249920	0.444966	-0.465251	0.723247	-69.206896	-61.186379	-173.742361
00988		0.250032	0.444937	-0.465209	0.723254	-69.186549	-61.191880	-173.768706
00989		0.250144	0.444888	-0.465211	0.723244	-69.173897	-61.194938	-173.792067
00990		0.250233	0.444838	-0.465202	0.723249	-69.159520	-61.196328	-173.814123
00991		0.250267	0.444825	-0.465157	0.723275	-69.144861	-61.197762	-173.827417
00992		0.250262	0.444842	-0.465058	0.723329	-69.123847	-61.200080	-173.837910
00993		0.250231	0.444887	-0.464905	0.723411	-69.094966	-61.203947	-173.848156
00994		0.250212	0.444926	-0.464768	0.723481	-69.068757	-61.207883	-173.858464
00995		0.250194	0.444963	-0.464642	0.723547	-69.044514	-61.211466	-173.867885
00996		0.250187	0.445002	-0.464512	0.723608	-69.019375	-61.216320	-173.878907
00997		0.250168	0.445068	-0.464373	0.723663	-68.996647	-61.223196	-173.885073
00998		0.250170	0.445119	-0.464223	0.723727	-68.967946	-61.229973	-173.898203
00999		0.250168	0.445154	-0.464067	0.723806	-68.935408	-61.234919	-173.914499
01000		0.250148	0.445205	-0.463941	0.723862	-68.913755	-61.240000	-173.920995
01001		0.250108	0.445268	-0.463811	0.723921	-68.893936	-61.244864	-173.923406
01002		0.250027	0.445342	-0.463679	0.723988	-68.877192	-61.247900	-173.918782
01003		0.249881	0.445440	-0.463526	0.724076	-68.862562	-61.248881	-173.903978
01004		0.249709	0.445582	-0.463342	0.724166	-68.848432	-61.253025	-173.882525
01005		0.249480	0.445736	-0.463138	0.724280	-68.834246	-61.254412	-173.854158
01006		0.249220	0.445885	-0.462966	0.724388	-68.828781	-61.252594	-173.817608
01007		0.248965	0.445995	-0.462816	0.724504	-68.822265	-61.246873	-173.785338
01008		0.248756	0.446073	-0.462735	0.724580	-68.825422	-61.240540	-173.754778
01009		0.248594	0.446121	-0.462709	0.724622	-68.834878	-61.233993	-173.727931
01010		0.248458	0.446165	-0.462690	0.724654	-68.844027	-61.228804	-173.704385
01011		0.248317	0.446199	-0.462667	0.724696	-68.850980	-61.222206	-173.682434
01012		0.248207	0.446241	-0.462609	0.724745	-68.849024	-61.219105	-173.668480
01013		0.248068	0.446287	-0.462538	0.724809	-68.846232	-61.214474	-173.651506
01014		0.247920	0.446344	-0.462464	0.724873	-68.844480	-61.210190	-173.632061
01015		0.247725	0.446409	-0.462383	0.724951	-68.844920	-61.203609	-173.605649
01016		0.247508	0.446470	-0.462357	0.725004	-68.859119	-61.194368	-173.569160
01017		0.247305	0.446479	-0.462369	0.725060	-68.873994	-61.180197	-173.537811
01018		0.247103	0.446477	-0.462393	0.725114	-68.890020	-61.164925	-173.506735
01019		0.246932	0.446459	-0.462411	0.725173	-68.900223	-61.150137	-173.483819
01020		0.246804	0.446423	-0.462437	0.725221	-68.907833	-61.136684	-173.468413
01021		0.246722	0.446370	-0.462426	0.725289	-68.901398	-61.125042	-173.467532
01022		0.246657	0.446334	-0.462413	0.725342	-68.895990	-61.116587	-173.466666
01023		0.246621	0.446281	-0.462349	0.725427	-68.874399	-61.108869	-173.479659
01024		0.246611	0.446232	-0.462300	0.725493	-68.855528	-61.103203	-173.493571
01025		0.246606	0.446164	-0.462252	0.725567	-68.833861	-61.096012	-173.511174
01026		0.246614	0.446063	-0.462270	0.725614	-68.822526	-61.085705	-173.526770
01027		0.246627	0.445941	-0.462334	0.725644	-68.818702	-61.072946	-173.540023
01028		0.246640	0.445838	-0.462418	0.725649	-68.822829	-61.062203	-173.547145
01029		0.246616	0.445758	-0.462437	0.725695	-68.816466	-61.051655	-173.554625
01030		0.246567	0.445700	-0.462402	0.725768	-68.801925	-61.042247	-173.562514
01031		0.246516	0.445698	-0.462277	0.725867	-68.773974	-61.039359	-173.573579
01032		0.246478	0.445736	-0.462073	0.725986	-68.732672	-61.042444	-173.590862
01033		0.246473	0.445766	-0.461865	0.726102	-68.687223	-61.047104	-173.614612
01034		0.246544	0.445753	-0.461703	0.726189	-68.642558	-61.052352	-173.649576
01035		0.246662	0.445704	-0.461652	0.726212	-68.616683	-61.056227	-173.681428
01036		0.246839	0.445599	-0.461661	0.726210	-68.594021	-61.057887	-173.722085
01037		0.247033	0.445483	-0.461746	0.726161	-68.586806	-61.058956	-173.756306
01038		0.247204	0.445360	-0.461833	0.726123	-68.580304	-61.057567	-173.788258
01039		0.247325	0.445288	-0.461873	0.726100	-68.572901	-61.058393	-173.811413
01040		0.247375	0.445268	-0.461852	0.726109	-68.562160	-61.060130	-173.824624
01041		0.247388	0.445298	-0.461770	0.726138	-68.546247	-61.065032	-173.833020
01042		0.247358	0.445362	-0.461632	0.726197	-68.524204	-61.070760	-173.837753
01043		0.247320	0.445443	-0.461452	0.726275	-68.494834	-61.078208	-173.844655
01044		0.247281	0.445502	-0.461299	0.726350	-68.468865	-61.082986	-173.851098
01045		0.247295	0.445511	-0.461209	0.726396	-68.447911	-61.085750	-173.864194
01046		0.247369	0.445483	-0.461221	0.726380	-68.442753	-61.088056	-173.877409
01047		0.247491	0.445393	-0.461318	0.726333	-68.446155	-61.086532	-173.895582
01048		0.247643	0.445279	-0.461512	0.726228	-68.467794	-61.083773	-173.908209
01049		0.247765	0.445161	-0.461696	0.726141	-68.488032	-61.078596	-173.918798
01050		0.247837	0.445086	-0.461792	0.726101	-68.496307	-61.075013	-173.927543
01051		0.247821	0.445075	-0.461784	0.726119	-68.493388	-61.072682	-173.928395
01052		0.247750	0.445134	-0.461691	0.726166	-68.483664	-61.074576	-173.921875
01053		0.247660	0.445195	-0.461555	0.726246	-68.464864	-61.075658	-173.918343
01054		0.247599	0.445270	-0.461452	0.726286	-68.454417	-61.080180	-173.912080
01055		0.247576	0.445288	-0.461424	0.726300	-68.451652	-61.080613	-173.909740
01056		0.247599	0.445264	-0.461477	0.726274	-68.459433	-61.079301	-173.909612
01057		0.247685	0.445203	-0.461584	0.726214	-68.471572	-61.078145	-173.916508
01058		0.247784	0.445128	-0.461716	0.726142	-68.487092	-61.076260	-173.923912
01059		0.247876	0.445063	-0.461841	0.726071	-68.502618	-61.074986	-173.929813
01060		0.247949	0.445041	-0.461899	0.726023	-68.509470	-61.077479	-173.935434
01061		0.247979	0.445063	-0.461883	0.726009	-68.507198	-61.082239	-173.938282
01062		0.247955	0.445131	-0.461798	0.726030	-68.498252	-61.088387	-173.935562
01063		0.247882	0.445218	-0.461659	0.726090	-68.481641	-61.093554	-173.930704
01064		0.247849	0.445284	-0.461553	0.726128	-68.467608	-61.099173	-173.930185
01065		0.247862	0.445314	-0.461520	0.726127	-68.463446	-61.103526	-173.931689
01066		0.247926	0.445306	-0.461560	0.726084	-68.468566	-61.107059	-173.936228
01067		0.248026	0.445282	-0.461610	0.726033	-68.471802	-61.111479	-173.946935
01068		0.248136	0.445259	-0.461673	0.725969	-68.477824	-61.116440	-173.957088
01069		0.248248	0.445233	-0.461698	0.725931	-68.474093	-61.121764	-173.973351
01070		0.248332	0.445247	-0.461683	0.725903	-68.468068	-61.129527	-173.985024
01071		0.248430	0.445244	-0.461669	0.725880	-68.459232	-61.136512	-174.000941
01072		0.248520	0.445263	-0.461626	0.725865	-68.446822	-61.145494	-174.016556
01073		0.248628	0.445284	-0.461576	0.725847	-68.432456	-61.156139	-174.034943
01074		0.248742	0.445304	-0.461525	0.725828	-68.416978	-61.167086	-174.054870
01075		0.248882	0.445327	-0.461479	0.725795	-68.401911	-61.180192	-174.077145
01076		0.248987	0.445348	-0.461458	0.725759	-68.394509	-61.190372	-174.091195
01077		0.249111	0.445364	-0.461456	0.725708	-68.389918	-61.201213	-174.105985
01078		0.249229	0.445364	-0.461451	0.725671	-68.382522	-61.209899	-174.123083
01079		0.249357	0.445338	-0.461484	0.725622	-68.379717	-61.216182	-174.140623
01080		0.249483	0.445324	-0.461497	0.725579	-68.374045	-61.223828	-174.158808
01081		0.249593	0.445308	-0.461518	0.725538	-68.370794	-61.230059	-174.173868
01082		0.249691	0.445300	-0.461519	0.725508	-68.364728	-61.236322	-174.188632
01083		0.249770	0.445289	-0.461517	0.725489	-68.358334	-61.241015	-174.201770
01084		0.249848	0.445291	-0.461544	0.725444	-68.360981	-61.246723	-174.208551
01085		0.249928	0.445293	-0.461552	0.725410	-68.359149	-61.252675	-174.218113
01086		0.250010	0.445300	-0.461529	0.725392	-68.350226	-61.259724	-174.231693
01087		0.250088	0.445338	-0.461479	0.725374	-68.339619	-61.269835	-174.243430
01088		0.250164	0.445403	-0.461382	0.725370	-68.321780	-61.283250	-174.257147
01089		0.250246	0.445466	-0.461268	0.725375	-68.299282	-61.296900	-174.274373
01090		0.250332	0.445520	-0.461182	0.725367	-68.281984	-61.309691	-174.289691
01091		0.250427	0.445523	-0.461171	0.725339	-68.274680	-61.317110	-174.304073
01092		0.250542	0.445473	-0.461257	0.725275	-68.281912	-61.319499	-174.316173
01093		0.250637	0.445413	-0.461391	0.725194	-68.300350	-61.319004	-174.320200
01094		0.250702	0.445367	-0.461518	0.725120	-68.320638	-61.317796	-174.318845
01095		0.250710	0.445342	-0.461561	0.725105	-68.326916	-61.315393	-174.317977
01096		0.250701	0.445372	-0.461510	0.725122	-68.319709	-61.318324	-174.318830
01097		0.250693	0.445438	-0.461395	0.725157	-68.301929	-61.325794	-174.323437
01098		0.250682	0.445519	-0.461268	0.725192	-68.284083	-61.334637	-174.326393
01099		0.250721	0.445571	-0.461192	0.725195	-68.271158	-61.343777	-174.334260
01100		0.250821	0.445525	-0.461220	0.725171	-68.265805	-61.345915	-174.351832
01101		0.250939	0.445455	-0.461372	0.725076	-68.285906	-61.345793	-174.358246
01102		0.251061	0.445333	-0.461603	0.724961	-68.317122	-61.339908	-174.362478
01103		0.251129	0.445232	-0.461832	0.724854	-68.353921	-61.332137	-174.355952
01104		0.251139	0.445181	-0.461975	0.724791	-68.380432	-61.326331	-174.345333
01105		0.251116	0.445169	-0.462030	0.724771	-68.393237	-61.322879	-174.336232
01106		0.251077	0.445221	-0.461972	0.724790	-68.389023	-61.326001	-174.330353
01107		0.251001	0.445326	-0.461830	0.724842	-68.374410	-61.332933	-174.322599
01108		0.250944	0.445445	-0.461671	0.724890	-68.356719	-61.342753	-174.317620
01109		0.250953	0.445530	-0.461549	0.724912	-68.339377	-61.353631	-174.322199
01110		0.251017	0.445561	-0.461502	0.724901	-68.329287	-61.361920	-174.332660
01111		0.251103	0.445537	-0.461495	0.724891	-68.319430	-61.365696	-174.349659
01112		0.251234	0.445471	-0.461547	0.724852	-68.315079	-61.367937	-174.371622
01113		0.251380	0.445401	-0.461611	0.724804	-68.312309	-61.370538	-174.394596
01114		0.251514	0.445366	-0.461634	0.724765	-68.305467	-61.376440	-174.415766
01115		0.251605	0.445378	-0.461565	0.724770	-68.285424	-61.384884	-174.436640
01116		0.251671	0.445428	-0.461397	0.724823	-68.248615	-61.396406	-174.461709
01117		0.251723	0.445491	-0.461204	0.724890	-68.208255	-61.408503	-174.486331
01118		0.251790	0.445559	-0.461056	0.724919	-68.178804	-61.421890	-174.505772
01119		0.251858	0.445578	-0.460975	0.724935	-68.158224	-61.429568	-174.523957
01120		0.251950	0.445521	-0.461023	0.724907	-68.156431	-61.429783	-174.539421
01121		0.252072	0.445414	-0.461153	0.724847	-68.165562	-61.426206	-174.555578
01122		0.252164	0.445300	-0.461268	0.724812	-68.171624	-61.419812	-174.570739
01123		0.252272	0.445195	-0.461332	0.724799	-68.165302	-61.415880	-174.594506
01124		0.252356	0.445147	-0.461316	0.724810	-68.149675	-61.416910	-174.616579
01125		0.252429	0.445093	-0.461218	0.724879	-68.113920	-61.417259	-174.649848
01126		0.252511	0.445090	-0.461080	0.724940	-68.075491	-61.423951	-174.681771
01127		0.252615	0.445072	-0.460988	0.724974	-68.044504	-61.430265	-174.712922
01128		0.252742	0.445005	-0.460980	0.724976	-68.025725	-61.432410	-174.742998
01129		0.252898	0.444884	-0.461050	0.724951	-68.016308	-61.430253	-174.774947
01130		0.253067	0.444742	-0.461198	0.724884	-68.021936	-61.426212	-174.801103
01131		0.253209	0.444606	-0.461338	0.724830	-68.027865	-61.420805	-174.823549
01132		0.253299	0.444518	-0.461415	0.724803	-68.028629	-61.417355	-174.839739
01133		0.253344	0.444482	-0.461403	0.724817	-68.017886	-61.416888	-174.853706
01134		0.253357	0.444474	-0.461334	0.724861	-67.999136	-61.417443	-174.866884
01135		0.253387	0.444483	-0.461274	0.724884	-67.984261	-61.421044	-174.878234
01136		0.253436	0.444464	-0.461252	0.724892	-67.973356	-61.422711	-174.891603
01137		0.253537	0.444394	-0.461310	0.724862	-67.971618	-61.422159	-174.909050
01138		0.253671	0.444278	-0.461437	0.724806	-67.977989	-61.418486	-174.928827
01139		0.253808	0.444124	-0.461622	0.724735	-67.992553	-61.410445	-174.946980
01140		0.253934	0.444008	-0.461802	0.724647	-68.012286	-61.405940	-174.957922
01141		0.254021	0.443912	-0.461950	0.724581	-68.029342	-61.400914	-174.964765
01142		0.254064	0.443846	-0.462028	0.724557	-68.036164	-61.396385	-174.970477
01143		0.254033	0.443858	-0.462024	0.724563	-68.038529	-61.395378	-174.964849
01144		0.253949	0.443910	-0.461938	0.724615	-68.030011	-61.395454	-174.956697
01145		0.253850	0.443979	-0.461819	0.724683	-68.016858	-61.396505	-174.948338
01146		0.253788	0.444002	-0.461755	0.724732	-68.007785	-61.394886	-174.945265
01147		0.253805	0.443965	-0.461766	0.724741	-68.004217	-61.392100	-174.952116
01148		0.253846	0.443905	-0.461868	0.724699	-68.017936	-61.387920	-174.953016
01149		0.253920	0.443806	-0.462016	0.724639	-68.035131	-61.381540	-174.958558
01150		0.254003	0.443694	-0.462183	0.724572	-68.054633	-61.374317	-174.964812
01151		0.254081	0.443594	-0.462337	0.724508	-68.073036	-61.368200	-174.970086
01152		0.254140	0.443540	-0.462417	0.724469	-68.081367	-61.366139	-174.975716
01153		0.254132	0.443539	-0.462389	0.724490	-68.074805	-61.365643	-174.978821
01154		0.254071	0.443600	-0.462260	0.724557	-68.055639	-61.368609	-174.978884
01155		0.253962	0.443714	-0.462046	0.724661	-68.026601	-61.374460	-174.975281
01156		0.253854	0.443838	-0.461847	0.724751	-68.002198	-61.381350	-174.968530
01157		0.253788	0.443908	-0.461732	0.724804	-67.988290	-61.384842	-174.964148
01158		0.253811	0.443908	-0.461747	0.724786	-67.990766	-61.386492	-174.965053
01159		0.253872	0.443866	-0.461874	0.724710	-68.012141	-61.385545	-174.962344
01160		0.253922	0.443817	-0.461978	0.724656	-68.027432	-61.383163	-174.962543
01161		0.253940	0.443811	-0.461999	0.724640	-68.030566	-61.383631	-174.963116
01162		0.253918	0.443853	-0.461893	0.724689	-68.012356	-61.387371	-174.968173
01163		0.253892	0.443928	-0.461712	0.724768	-67.980735	-61.394788	-174.978287
01164		0.253867	0.444040	-0.461528	0.724826	-67.953968	-61.406411	-174.982758
01165		0.253869	0.444133	-0.461381	0.724862	-67.931754	-61.417617	-174.989023
01166		0.253903	0.444201	-0.461271	0.724878	-67.913433	-61.428245	-174.998281
01167		0.253919	0.444271	-0.461205	0.724871	-67.906865	-61.437534	-174.998476
01168		0.253891	0.444349	-0.461116	0.724890	-67.898268	-61.444506	-174.994491
01169		0.253827	0.444439	-0.460993	0.724935	-67.885263	-61.450443	-174.988345
01170		0.253749	0.444546	-0.460847	0.724989	-67.869976	-61.457383	-174.980631
01171		0.253657	0.444649	-0.460678	0.725066	-67.849064	-61.462932	-174.975112
01172		0.253579	0.444734	-0.460542	0.725128	-67.832786	-61.467460	-174.969661
01173		0.253530	0.444806	-0.460429	0.725173	-67.818645	-61.472353	-174.967138
01174		0.253542	0.444822	-0.460404	0.725175	-67.814173	-61.475148	-174.969851
01175		0.253590	0.444794	-0.460436	0.725154	-67.815480	-61.475488	-174.976406
01176		0.253652	0.444749	-0.460519	0.725108	-67.825429	-61.474545	-174.980730
01177		0.253699	0.444712	-0.460610	0.725056	-67.839521	-61.473268	-174.980413
01178		0.253692	0.444706	-0.460661	0.725030	-67.851556	-61.471771	-174.972963
01179		0.253625	0.444751	-0.460654	0.725030	-67.860321	-61.471873	-174.956936
01180		0.253510	0.444825	-0.460561	0.725084	-67.854865	-61.472173	-174.941982
01181		0.253347	0.444964	-0.460448	0.725127	-67.857021	-61.476053	-174.912135
01182		0.253171	0.445064	-0.460320	0.725209	-67.850230	-61.474880	-174.889312
01183		0.253025	0.445147	-0.460227	0.725268	-67.848078	-61.473931	-174.868299
01184		0.252906	0.445190	-0.460200	0.725300	-67.854445	-61.470098	-174.848235
01185		0.252814	0.445194	-0.460234	0.725308	-67.868295	-61.463524	-174.829604
01186		0.252763	0.445172	-0.460335	0.725275	-67.892368	-61.456700	-174.811551
01187		0.252712	0.445150	-0.460445	0.725237	-67.918670	-61.449757	-174.792056
01188		0.252637	0.445171	-0.460454	0.725244	-67.928231	-61.446519	-174.776646
01189		0.252524	0.445218	-0.460398	0.725291	-67.927629	-61.443725	-174.761054
01190		0.252416	0.445304	-0.460262	0.725361	-67.913420	-61.446064	-174.751064
01191		0.252278	0.445394	-0.460135	0.725435	-67.903503	-61.446640	-174.734965
01192		0.252164	0.445442	-0.460080	0.725480	-67.903433	-61.444005	-174.718892
01193		0.252089	0.445441	-0.460118	0.725482	-67.916749	-61.438046	-174.702840
01194		0.252048	0.445386	-0.460240	0.725453	-67.940324	-61.428169	-174.688696
01195		0.252040	0.445286	-0.460410	0.725410	-67.967219	-61.415483	-174.679650
01196		0.252027	0.445193	-0.460573	0.725368	-67.993637	-61.403324	-174.669760
01197		0.252002	0.445109	-0.460712	0.725339	-68.016159	-61.391444	-174.660307
01198		0.251983	0.445025	-0.460832	0.725322	-68.033922	-61.379981	-174.654174
01199		0.251942	0.445005	-0.460920	0.725292	-68.054571	-61.374158	-174.639050
01200		0.251901	0.444966	-0.460987	0.725288	-68.067043	-61.366470	-174.630325
01201		0.251838	0.444943	-0.461041	0.725289	-68.080292	-61.359000	-174.617326
01202		0.251785	0.444925	-0.461091	0.725287	-68.092735	-61.352802	-174.605573
01203		0.251749	0.444905	-0.461192	0.725248	-68.116019	-61.347200	-174.589534
01204		0.251740	0.444873	-0.461318	0.725190	-68.142557	-61.342228	-174.575282
01205		0.251771	0.444826	-0.461482	0.725104	-68.173477	-61.338136	-174.564009
01206		0.251818	0.444795	-0.461621	0.725018	-68.200131	-61.337221	-174.555677
01207		0.251903	0.444790	-0.461703	0.724939	-68.214788	-61.342296	-174.556667
01208		0.252000	0.444822	-0.461693	0.724892	-68.211910	-61.352970	-174.566357
01209		0.252089	0.444902	-0.461584	0.724882	-68.192683	-61.368939	-174.581201
01210		0.252184	0.445011	-0.461401	0.724898	-68.159409	-61.389091	-174.602713
01211		0.252288	0.445112	-0.461221	0.724915	-68.124968	-61.408895	-174.626595
01212		0.252432	0.445177	-0.461068	0.724922	-68.089745	-61.427603	-174.658079
01213		0.252568	0.445223	-0.461011	0.724882	-68.075536	-61.443004	-174.677591
01214		0.252744	0.445268	-0.460963	0.724824	-68.060885	-61.461065	-174.701983
01215		0.252873	0.445318	-0.460893	0.724793	-68.044293	-61.476571	-174.721976
01216		0.252988	0.445395	-0.460774	0.724781	-68.020706	-61.494094	-174.742427
01217		0.253060	0.445499	-0.460567	0.724824	-67.981721	-61.512188	-174.765352
01218		0.253105	0.445641	-0.460320	0.724877	-67.940377	-61.532695	-174.783844
01219		0.253144	0.445750	-0.460105	0.724933	-67.902196	-61.548837	-174.802262
01220		0.253261	0.445795	-0.460001	0.724931	-67.876937	-61.563055	-174.826572
01221		0.253412	0.445787	-0.459990	0.724890	-67.864982	-61.573309	-174.850670
01222		0.253596	0.445711	-0.460059	0.724829	-67.860089	-61.578039	-174.879558
01223		0.253774	0.445626	-0.460150	0.724761	-67.859745	-61.581215	-174.905771
01224		0.253892	0.445551	-0.460214	0.724725	-67.857770	-61.581265	-174.925581
01225		0.253970	0.445493	-0.460253	0.724708	-67.854363	-61.580405	-174.940593
01226		0.253989	0.445460	-0.460282	0.724704	-67.855345	-61.578096	-174.944622
01227		0.253961	0.445440	-0.460291	0.724720	-67.856121	-61.573729	-174.942673
01228		0.253881	0.445444	-0.460296	0.724742	-67.862417	-61.568231	-174.929908
01229		0.253790	0.445450	-0.460270	0.724787	-67.861987	-61.562436	-174.919771
01230		0.253668	0.445463	-0.460250	0.724835	-67.865709	-61.555045	-174.903316
01231		0.253555	0.445469	-0.460205	0.724899	-67.861873	-61.547783	-174.892757
01232		0.253459	0.445454	-0.460243	0.724917	-67.874201	-61.538876	-174.876204
01233		0.253381	0.445384	-0.460375	0.724904	-67.900125	-61.524633	-174.857730
01234		0.253302	0.445283	-0.460576	0.724866	-67.938239	-61.506440	-174.834333
01235		0.253195	0.445164	-0.460794	0.724838	-67.979591	-61.484129	-174.807374
01236		0.253064	0.445064	-0.461020	0.724802	-68.026739	-61.462039	-174.772895
01237		0.252857	0.444963	-0.461207	0.724816	-68.068541	-61.434681	-174.733464
01238		0.252593	0.444911	-0.461325	0.724866	-68.103732	-61.408752	-174.687992
01239		0.252278	0.444916	-0.461416	0.724914	-68.143606	-61.385613	-174.629712
01240		0.251941	0.444963	-0.461444	0.724984	-68.175851	-61.365734	-174.570356
01241		0.251600	0.445023	-0.461450	0.725063	-68.204479	-61.347172	-174.511739
01242		0.251269	0.445101	-0.461434	0.725140	-68.230110	-61.331315	-174.454600
01243		0.250978	0.445158	-0.461404	0.725225	-68.246813	-61.316449	-174.408804
01244		0.250716	0.445199	-0.461412	0.725284	-68.269155	-61.301578	-174.363972
01245		0.250517	0.445182	-0.461468	0.725328	-68.290785	-61.284729	-174.330929
01246		0.250358	0.445164	-0.461553	0.725340	-68.317162	-61.270397	-174.299481
01247		0.250180	0.445096	-0.461659	0.725376	-68.342208	-61.249183	-174.270737
01248		0.249976	0.445022	-0.461784	0.725413	-68.371979	-61.225205	-174.236873
01249		0.249727	0.444952	-0.461904	0.725465	-68.403782	-61.198459	-174.196645
01250		0.249436	0.444893	-0.462021	0.725526	-68.438598	-61.169743	-174.149295
01251		0.249125	0.444837	-0.462116	0.725607	-68.469530	-61.140100	-174.101843
01252		0.248811	0.444807	-0.462213	0.725672	-68.504823	-61.113050	-174.049480
01253		0.248565	0.444750	-0.462311	0.725729	-68.532848	-61.088023	-174.010913
01254		0.248393	0.444691	-0.462400	0.725766	-68.554622	-61.068330	-173.984147
01255		0.248312	0.444626	-0.462464	0.725794	-68.564388	-61.054888	-173.974798
01256		0.248295	0.444555	-0.462498	0.725821	-68.562891	-61.045733	-173.979481
01257		0.248330	0.444477	-0.462492	0.725861	-68.547808	-61.040041	-173.998248
01258		0.248363	0.444403	-0.462464	0.725913	-68.528324	-61.034683	-174.018985
01259		0.248391	0.444354	-0.462395	0.725976	-68.503062	-61.032111	-174.040787
01260		0.248416	0.444295	-0.462290	0.726071	-68.467614	-61.028456	-174.068909
01261		0.248398	0.444244	-0.462200	0.726166	-68.439198	-61.022322	-174.087697
01262		0.248370	0.444240	-0.462060	0.726267	-68.406178	-61.020940	-174.104443
01263		0.248316	0.444236	-0.461897	0.726392	-68.369206	-61.017889	-174.120639
01264		0.248257	0.444238	-0.461722	0.726521	-68.330693	-61.015252	-174.136731
01265		0.248233	0.444224	-0.461557	0.726643	-68.290101	-61.013383	-174.159175
01266		0.248260	0.444200	-0.461416	0.726738	-68.251125	-61.013774	-174.186862
01267		0.248345	0.444139	-0.461307	0.726816	-68.211207	-61.014387	-174.224342
01268		0.248462	0.444048	-0.461270	0.726855	-68.182723	-61.013408	-174.260860
01269		0.248628	0.443956	-0.461255	0.726864	-68.156516	-61.015737	-174.301393
01270		0.248812	0.443863	-0.461222	0.726879	-68.125265	-61.019432	-174.346851
01271		0.248981	0.443782	-0.461192	0.726890	-68.096855	-61.023265	-174.388269
01272		0.249111	0.443712	-0.461153	0.726912	-68.070437	-61.025580	-174.423234
01273		0.249206	0.443652	-0.461109	0.726944	-68.045817	-61.026342	-174.452723
01274		0.249256	0.443574	-0.461101	0.726979	-68.029754	-61.021661	-174.473724
01275		0.249274	0.443501	-0.461160	0.726981	-68.032105	-61.014606	-174.479952
01276		0.249288	0.443398	-0.461244	0.726986	-68.036420	-61.003863	-174.486914
01277		0.249308	0.443302	-0.461340	0.726976	-68.044351	-60.994225	-174.491853
01278		0.249312	0.443232	-0.461404	0.726977	-68.049118	-60.986514	-174.494947
01279		0.249352	0.443182	-0.461466	0.726954	-68.054672	-60.983676	-174.499877
01280		0.249430	0.443145	-0.461483	0.726940	-68.049013	-60.985109	-174.514502
01281		0.249543	0.443101	-0.461488	0.726924	-68.037887	-60.988613	-174.536704
01282		0.249713	0.443047	-0.461519	0.726879	-68.028184	-60.994992	-174.565042
01283		0.249887	0.442994	-0.461595	0.726803	-68.029639	-61.001500	-174.587151
01284		0.250060	0.442946	-0.461634	0.726748	-68.022724	-61.008585	-174.613685
01285		0.250167	0.442903	-0.461676	0.726711	-68.020750	-61.011477	-174.629766
01286		0.250214	0.442912	-0.461669	0.726694	-68.017877	-61.015925	-174.635914
01287		0.250198	0.442950	-0.461629	0.726701	-68.014673	-61.019269	-174.633094
01288		0.250153	0.443007	-0.461557	0.726728	-68.008248	-61.022553	-174.627503
01289		0.250120	0.443069	-0.461505	0.726734	-68.006600	-61.027264	-174.620154
01290		0.250096	0.443133	-0.461450	0.726739	-68.003950	-61.032844	-174.614116
01291		0.250100	0.443197	-0.461369	0.726750	-67.993645	-61.040649	-174.615722
01292		0.250126	0.443241	-0.461328	0.726740	-67.989014	-61.047625	-174.617752
01293		0.250183	0.443278	-0.461299	0.726717	-67.984145	-61.055927	-174.623991
01294		0.250238	0.443273	-0.461288	0.726708	-67.977867	-61.059465	-174.634029
01295		0.250309	0.443264	-0.461305	0.726677	-67.977070	-61.063657	-174.642832
01296		0.250352	0.443252	-0.461323	0.726659	-67.977204	-61.065318	-174.648348
01297		0.250335	0.443266	-0.461271	0.726689	-67.967554	-61.066052	-174.651191
01298		0.250258	0.443315	-0.461139	0.726769	-67.947178	-61.066625	-174.651007
01299		0.250152	0.443390	-0.460986	0.726857	-67.926861	-61.068126	-174.645724
01300		0.250057	0.443454	-0.460867	0.726926	-67.912820	-61.068986	-174.638591
01301		0.249980	0.443510	-0.460823	0.726947	-67.914459	-61.069724	-174.625080
01302		0.249905	0.443549	-0.460830	0.726944	-67.926067	-61.068466	-174.607011
01303		0.249867	0.443532	-0.460923	0.726908	-67.947999	-61.063187	-174.591290
01304		0.249861	0.443507	-0.461058	0.726840	-67.977111	-61.058908	-174.575458
01305		0.249849	0.443458	-0.461194	0.726787	-68.003529	-61.051840	-174.562397
01306		0.249825	0.443418	-0.461312	0.726746	-68.027155	-61.044807	-174.548965
01307		0.249781	0.443404	-0.461387	0.726722	-68.045523	-61.039513	-174.534570
01308		0.249701	0.443394	-0.461441	0.726721	-68.061418	-61.032207	-174.517208
01309		0.249577	0.443416	-0.461469	0.726732	-68.077906	-61.025274	-174.492429
01310		0.249419	0.443453	-0.461509	0.726738	-68.101523	-61.017456	-174.458499
01311		0.249271	0.443497	-0.461579	0.726718	-68.132554	-61.010780	-174.420826
01312		0.249135	0.443519	-0.461725	0.726659	-68.178267	-61.002046	-174.377496
01313		0.249026	0.443525	-0.461906	0.726577	-68.228514	-60.993356	-174.335611
01314		0.248961	0.443513	-0.462092	0.726488	-68.274975	-60.985880	-174.302223
01315		0.248914	0.443521	-0.462239	0.726406	-68.313773	-60.982124	-174.273795
01316		0.248909	0.443551	-0.462329	0.726332	-68.340249	-60.984274	-174.255360
01317		0.248892	0.443601	-0.462381	0.726275	-68.361035	-60.987931	-174.237355
01318		0.248905	0.443690	-0.462390	0.726210	-68.375746	-60.998426	-174.223127
01319		0.248879	0.443817	-0.462365	0.726158	-68.389996	-61.010361	-174.201987
01320		0.248832	0.443969	-0.462296	0.726124	-68.398611	-61.023862	-174.180001
01321		0.248767	0.444128	-0.462199	0.726111	-68.402337	-61.036927	-174.158278
01322		0.248708	0.444295	-0.462150	0.726061	-68.418424	-61.050932	-174.129435
01323		0.248690	0.444404	-0.462166	0.725990	-68.439641	-61.061178	-174.106418
01324		0.248659	0.444520	-0.462207	0.725904	-68.468322	-61.071079	-174.077108
01325		0.248677	0.444625	-0.462240	0.725812	-68.491050	-61.083445	-174.057449
01326		0.248710	0.444698	-0.462258	0.725744	-68.504661	-61.093532	-174.047265
01327		0.248773	0.444798	-0.462229	0.725680	-68.509451	-61.109153	-174.043423
01328		0.248848	0.444910	-0.462167	0.725625	-68.507243	-61.127186	-174.044015
01329		0.248930	0.445027	-0.462079	0.725581	-68.499433	-61.146572	-174.048294
01330		0.249010	0.445141	-0.461995	0.725537	-68.492037	-61.165421	-174.052299
01331		0.249083	0.445253	-0.461909	0.725498	-68.484194	-61.183504	-174.056023
01332		0.249148	0.445352	-0.461851	0.725452	-68.481527	-61.199334	-174.056877
01333		0.249190	0.445422	-0.461837	0.725404	-68.486605	-61.210100	-174.052871
01334		0.249202	0.445519	-0.461810	0.725357	-68.494049	-61.221569	-174.042235
01335		0.249202	0.445592	-0.461746	0.725353	-68.489605	-61.229987	-174.039079
01336		0.249188	0.445661	-0.461647	0.725378	-68.476715	-61.237204	-174.039737
01337		0.249179	0.445723	-0.461506	0.725432	-68.452483	-61.244430	-174.048303
01338		0.249202	0.445764	-0.461375	0.725483	-68.425672	-61.251567	-174.063439
01339		0.249277	0.445729	-0.461318	0.725515	-68.402758	-61.253778	-174.087708
01340		0.249366	0.445663	-0.461290	0.725544	-68.380975	-61.253330	-174.115442
01341		0.249429	0.445532	-0.461266	0.725617	-68.352251	-61.244125	-174.149564
01342		0.249444	0.445356	-0.461257	0.725725	-68.322840	-61.226400	-174.182249
01343		0.249461	0.445126	-0.461329	0.725815	-68.304689	-61.202249	-174.212831
01344		0.249479	0.444836	-0.461497	0.725880	-68.300957	-61.170975	-174.239637
01345		0.249543	0.444470	-0.461793	0.725894	-68.314373	-61.133909	-174.267328
01346		0.249629	0.444041	-0.462211	0.725861	-68.346787	-61.090751	-174.290999
01347		0.249712	0.443583	-0.462666	0.725823	-68.384026	-61.043909	-174.313834
01348		0.249772	0.443100	-0.463130	0.725801	-68.420919	-60.992745	-174.336374
01349		0.249813	0.442630	-0.463580	0.725787	-68.457341	-60.941739	-174.356114
01350		0.249839	0.442142	-0.464014	0.725797	-68.488302	-60.887822	-174.378819
01351		0.249847	0.441687	-0.464366	0.725846	-68.505375	-60.836834	-174.405247
01352		0.249832	0.441235	-0.464678	0.725927	-68.514416	-60.784669	-174.433570
01353		0.249796	0.440793	-0.464933	0.726045	-68.512454	-60.732584	-174.465439
01354		0.249763	0.440342	-0.465172	0.726177	-68.505364	-60.679922	-174.501122
01355		0.249781	0.439864	-0.465460	0.726276	-68.503526	-60.627674	-174.541467
01356		0.249806	0.439334	-0.465830	0.726350	-68.513695	-60.569835	-174.579468
01357		0.249878	0.438756	-0.466275	0.726390	-68.532125	-60.509681	-174.621497
01358		0.249954	0.438158	-0.466728	0.726433	-68.549961	-60.447825	-174.665839
01359		0.250013	0.437572	-0.467126	0.726511	-68.557012	-60.386217	-174.713667
01360		0.250031	0.437013	-0.467459	0.726627	-68.554999	-60.325190	-174.760191
01361		0.250021	0.436473	-0.467730	0.726780	-68.542775	-60.264542	-174.808081
01362		0.250013	0.435959	-0.467950	0.726950	-68.521882	-60.207241	-174.859261
01363		0.249993	0.435473	-0.468117	0.727140	-68.493504	-60.152431	-174.911206
01364		0.249958	0.434987	-0.468182	0.727402	-68.441690	-60.097083	-174.975009
01365		0.249919	0.434485	-0.468267	0.727660	-68.393113	-60.039860	-175.037674
01366		0.249944	0.433873	-0.468451	0.727898	-68.349234	-59.974625	-175.112932
01367		0.250027	0.433205	-0.468739	0.728082	-68.319557	-59.906992	-175.190453
01368		0.250113	0.432514	-0.469017	0.728284	-68.284474	-59.837103	-175.273086
01369		0.250234	0.431783	-0.469363	0.728454	-68.258411	-59.765119	-175.357279
01370		0.250375	0.430989	-0.469841	0.728567	-68.254035	-59.687141	-175.435895
01371		0.250494	0.430144	-0.470400	0.728665	-68.263089	-59.601524	-175.508355
01372		0.250522	0.429277	-0.470974	0.728796	-68.277310	-59.506766	-175.569641
01373		0.250460	0.428372	-0.471619	0.728932	-68.307910	-59.401167	-175.614816
01374		0.250337	0.427383	-0.472411	0.729042	-68.364277	-59.281215	-175.645241
01375		0.250216	0.426286	-0.473364	0.729108	-68.443666	-59.149021	-175.671070
01376		0.250082	0.425092	-0.474485	0.729123	-68.549602	-59.004579	-175.688084
01377		0.249925	0.423820	-0.475767	0.729082	-68.683437	-58.849363	-175.693141
01378		0.249747	0.422474	-0.477158	0.729015	-68.833450	-58.684394	-175.692904
01379		0.249526	0.421093	-0.478620	0.728931	-68.996994	-58.512256	-175.683498
01380		0.249264	0.419640	-0.480198	0.728821	-69.179151	-58.328970	-175.665385
01381		0.249029	0.418154	-0.481925	0.728615	-69.389311	-58.143584	-175.637792
01382		0.248763	0.416621	-0.483796	0.728345	-69.626899	-57.950293	-175.596062
01383		0.248419	0.415077	-0.485738	0.728051	-69.882103	-57.749897	-175.537921
01384		0.248024	0.413503	-0.487778	0.727717	-70.156505	-57.542357	-175.467312
01385		0.247577	0.411906	-0.489908	0.727344	-70.449474	-57.327994	-175.383855
01386		0.247064	0.410265	-0.492143	0.726937	-70.761914	-57.103738	-175.287658
01387		0.246615	0.408470	-0.494645	0.726402	-71.110300	-56.866592	-175.192175
01388		0.246303	0.406488	-0.497523	0.725653	-71.512130	-56.618150	-175.098383
01389		0.246098	0.404360	-0.500690	0.724733	-71.954079	-56.361001	-175.007658
01390		0.245895	0.402091	-0.504019	0.723756	-72.412863	-56.088826	-174.921348
01391		0.245657	0.399729	-0.507429	0.722762	-72.877761	-55.804494	-174.838017
01392		0.245338	0.397312	-0.510844	0.721797	-73.338283	-55.509092	-174.755465
01393		0.244937	0.394864	-0.514181	0.720906	-73.779315	-55.205514	-174.679830
01394		0.244429	0.392431	-0.517326	0.720157	-74.182381	-54.897336	-174.614191
01395		0.243790	0.390007	-0.520217	0.719607	-74.534374	-54.582610	-174.563110
01396		0.243074	0.387547	-0.522946	0.719201	-74.848516	-54.260136	-174.528494
01397		0.242308	0.385013	-0.525624	0.718868	-75.143553	-53.927533	-174.506498
01398		0.241511	0.382384	-0.528251	0.718614	-75.417113	-53.584166	-174.501398
01399		0.240718	0.379689	-0.530831	0.718408	-75.672897	-53.235652	-174.512651
01400		0.239950	0.376870	-0.533452	0.718207	-75.922742	-52.877382	-174.540874
01401		0.239270	0.373938	-0.536163	0.717948	-76.176803	-52.514905	-174.586244
01402		0.238687	0.370929	-0.538851	0.717690	-76.416249	-52.153563	-174.655862
01403		0.238117	0.367910	-0.541343	0.717558	-76.614528	-51.794681	-174.748715
01404		0.237501	0.364947	-0.543501	0.717645	-76.752280	-51.441162	-174.862474
01405		0.236851	0.362094	-0.545282	0.717954	-76.826888	-51.099183	-174.994611
01406		0.236182	0.359357	-0.546709	0.718463	-76.844087	-50.770242	-175.142617
01407		0.235506	0.356782	-0.547726	0.719194	-76.796971	-50.459614	-175.306757
01408		0.234776	0.354423	-0.548317	0.720148	-76.689551	-50.168997	-175.475820
01409		0.234041	0.352193	-0.548568	0.721289	-76.529632	-49.892777	-175.657334
01410		0.233329	0.350020	-0.548716	0.722464	-76.357179	-49.624618	-175.841174
01411		0.232715	0.347837	-0.548949	0.723538	-76.202032	-49.362453	-176.026137
01412		0.232171	0.345682	-0.549337	0.724451	-76.081784	-49.107582	-176.198825
01413		0.231668	0.343530	-0.549759	0.725315	-75.970355	-48.855915	-176.370342
01414		0.231099	0.341487	-0.550040	0.726248	-75.845025	-48.610815	-176.532283
01415		0.230407	0.339544	-0.550049	0.727371	-75.680643	-48.367276	-176.690863
01416		0.229571	0.337745	-0.549800	0.728660	-75.484362	-48.128085	-176.837200
01417		0.228604	0.336091	-0.549228	0.730159	-75.243538	-47.894445	-176.978084
01418		0.227472	0.334599	-0.548315	0.731882	-74.957199	-47.665535	-177.109088
01419		0.226156	0.333244	-0.547114	0.733804	-74.634495	-47.437296	-177.225795
01420		0.224669	0.331992	-0.545787	0.735814	-74.303257	-47.206823	-177.320076
01421		0.223066	0.330762	-0.544498	0.737808	-73.987142	-46.969863	-177.392981
01422		0.221427	0.329508	-0.543396	0.739673	-73.708543	-46.727400	-177.446430
01423		0.219767	0.328209	-0.542635	0.741302	-73.493964	-46.478082	-177.472472
01424		0.218191	0.326855	-0.542246	0.742649	-73.345144	-46.228463	-177.481942
01425		0.216685	0.325490	-0.542156	0.743754	-73.251430	-45.982197	-177.475056
01426		0.215237	0.324181	-0.542253	0.744675	-73.197001	-45.745335	-177.452833
01427		0.213817	0.322978	-0.542440	0.745470	-73.167684	-45.521003	-177.414644
01428		0.212385	0.321916	-0.542565	0.746248	-73.138704	-45.310109	-177.364555
01429		0.210902	0.321026	-0.542597	0.747028	-73.107585	-45.113034	-177.297346
01430		0.209360	0.320275	-0.542569	0.747805	-73.077768	-44.925759	-177.213337
01431		0.207668	0.319618	-0.542529	0.748586	-73.056605	-44.737047	-177.103932
01432		0.205815	0.318952	-0.542535	0.749377	-73.046645	-44.535789	-176.974775
01433		0.203734	0.318241	-0.542657	0.750159	-73.059348	-44.313066	-176.817426
01434		0.201435	0.317463	-0.542997	0.750863	-73.111122	-44.067110	-176.628038
01435		0.198871	0.316618	-0.543505	0.751536	-73.193273	-43.794493	-176.405993
01436		0.196042	0.315728	-0.544070	0.752244	-73.287076	-43.498056	-176.157386
01437		0.192934	0.314857	-0.544539	0.753072	-73.369645	-43.183810	-175.885438
01438		0.189649	0.313971	-0.544806	0.754083	-73.417127	-42.856561	-175.612160
01439		0.186206	0.313138	-0.544747	0.755329	-73.412680	-42.525200	-175.340477
01440		0.182684	0.312329	-0.544233	0.756893	-73.330440	-42.194129	-175.089665
01441		0.179156	0.311553	-0.543336	0.758699	-73.183244	-41.869339	-174.860759
01442		0.175749	0.310774	-0.542147	0.760663	-72.983276	-41.556062	-174.663341
01443		0.172538	0.309882	-0.540969	0.762598	-72.774761	-41.247018	-174.495833
01444		0.169632	0.308787	-0.540161	0.764266	-72.611543	-40.938436	-174.355364
01445		0.167101	0.307453	-0.539909	0.765538	-72.521495	-40.630054	-174.241505
01446		0.164894	0.305848	-0.540263	0.766409	-72.511331	-40.314364	-174.149564
01447		0.162895	0.304028	-0.541113	0.766961	-72.567641	-39.989311	-174.069661
01448		0.160965	0.302083	-0.542157	0.767399	-72.647323	-39.655753	-173.997907
01449		0.158972	0.300037	-0.543166	0.767904	-72.715180	-39.308428	-173.932181
01450		0.156872	0.297965	-0.543943	0.768593	-72.743979	-38.953246	-173.872295
01451		0.154609	0.295840	-0.544443	0.769517	-72.725746	-38.583859	-173.817389
01452		0.152218	0.293615	-0.544746	0.770631	-72.670773	-38.197763	-173.769991
01453		0.149773	0.291212	-0.545017	0.771829	-72.600890	-37.791476	-173.735317
01454		0.147299	0.288671	-0.545354	0.773021	-72.535135	-37.369865	-173.706144
01455		0.144781	0.286001	-0.545710	0.774237	-72.466753	-36.933132	-173.682496
01456		0.142243	0.283274	-0.546054	0.775466	-72.394967	-36.490136	-173.661628
01457		0.139687	0.280488	-0.546300	0.776769	-72.305365	-36.041537	-173.648583
01458		0.137107	0.277729	-0.546325	0.778201	-72.183821	-35.596124	-173.640691
01459		0.134490	0.274975	-0.546133	0.779769	-72.030100	-35.151040	-173.637947
01460		0.131908	0.272218	-0.545746	0.781446	-71.846679	-34.710081	-173.646761
01461		0.129396	0.269408	-0.545298	0.783151	-71.651987	-34.269935	-173.668035
01462		0.126966	0.266565	-0.544786	0.784877	-71.446831	-33.833385	-173.701029
01463		0.124612	0.263758	-0.544137	0.786650	-71.223721	-33.407000	-173.742560
01464		0.122318	0.261078	-0.543211	0.788542	-70.965728	-32.999424	-173.789163
01465		0.120065	0.258516	-0.541942	0.790603	-70.662303	-32.609057	-173.842520
01466		0.117883	0.256085	-0.540278	0.792858	-70.306071	-32.239405	-173.906498
01467		0.115697	0.253715	-0.538200	0.795351	-69.891764	-31.878660	-173.979862
01468		0.113466	0.251423	-0.535738	0.798058	-69.426560	-31.525367	-174.054924
01469		0.111230	0.249191	-0.532977	0.800916	-68.922637	-31.179961	-174.132906
01470		0.109006	0.247120	-0.529896	0.803903	-68.381647	-30.853483	-174.207969
01471		0.106768	0.245229	-0.526287	0.807147	-67.773363	-30.547537	-174.284521
01472		0.104454	0.243462	-0.522097	0.810697	-67.088988	-30.252965	-174.362220
01473		0.102067	0.241801	-0.517528	0.814419	-66.359196	-29.966886	-174.433890
01474		0.099691	0.240153	-0.512911	0.818114	-65.628644	-29.683596	-174.502070
01475		0.097351	0.238438	-0.508554	0.821610	-64.939805	-29.394709	-174.563301
01476		0.095027	0.236676	-0.504518	0.824874	-64.301831	-29.100355	-174.612141
01477		0.092694	0.234907	-0.500698	0.827966	-63.700851	-28.803950	-174.647596
01478		0.090308	0.233242	-0.496901	0.830983	-63.112802	-28.514927	-174.664493
01479		0.087856	0.231770	-0.492940	0.834011	-62.513975	-28.243037	-174.662251
01480		0.085443	0.230474	-0.488703	0.837108	-61.885354	-27.993761	-174.657461
01481		0.083144	0.229340	-0.484089	0.840326	-61.210541	-27.771034	-174.662553
01482		0.080982	0.228386	-0.479154	0.843619	-60.498172	-27.577452	-174.677098
01483		0.078966	0.227547	-0.474064	0.846906	-59.769669	-27.405937	-174.700903
01484		0.077158	0.226834	-0.468907	0.850129	-59.036766	-27.260418	-174.737008
01485		0.075552	0.226271	-0.463857	0.853188	-58.325002	-27.141763	-174.777820
01486		0.074084	0.225865	-0.459017	0.856037	-57.649647	-27.046214	-174.813378
01487		0.072739	0.225663	-0.454465	0.858631	-57.022917	-26.977264	-174.836902
01488		0.071453	0.225669	-0.450250	0.860955	-56.452386	-26.931451	-174.840284
01489		0.070193	0.225895	-0.446347	0.863029	-55.934582	-26.908547	-174.820776
01490		0.068943	0.226308	-0.442662	0.864917	-55.455286	-26.905042	-174.782359
01491		0.067716	0.226786	-0.439188	0.866658	-55.008570	-26.908806	-174.734873
01492		0.066596	0.227249	-0.436086	0.868189	-54.612470	-26.915319	-174.687156
01493		0.065600	0.227748	-0.433542	0.869407	-54.293760	-26.929427	-174.631777
01494		0.064685	0.228245	-0.431408	0.870406	-54.031057	-26.945508	-174.571725
01495		0.063720	0.228841	-0.429054	0.871484	-53.742648	-26.971171	-174.507293
01496		0.062537	0.229635	-0.425828	0.872942	-53.344424	-27.011951	-174.435576
01497		0.061078	0.230635	-0.421367	0.874944	-52.788552	-27.068622	-174.361844
01498		0.059339	0.231873	-0.415816	0.877389	-52.097068	-27.144284	-174.278932
01499		0.057388	0.233248	-0.409776	0.879992	-51.349500	-27.228787	-174.180598
01500		0.055258	0.234651	-0.403799	0.882514	-50.617973	-27.309163	-174.058730
01501		0.052952	0.236018	-0.398097	0.884879	-49.929476	-27.377690	-173.910273
01502		0.050437	0.237396	-0.392515	0.887148	-49.264866	-27.439052	-173.733586
01503		0.047736	0.238783	-0.386681	0.889484	-48.572897	-27.497128	-173.543559
01504		0.044899	0.240073	-0.380446	0.891970	-47.828785	-27.544620	-173.356797
01505		0.041999	0.241170	-0.373939	0.894563	-47.045947	-27.573976	-173.182434
01506		0.039092	0.242013	-0.367411	0.897168	-46.255219	-27.579488	-173.021387
01507		0.036145	0.242560	-0.361019	0.899735	-45.477527	-27.553541	-172.866562
01508		0.033075	0.242799	-0.354773	0.902270	-44.715518	-27.490932	-172.708175
01509		0.029789	0.242778	-0.348557	0.904809	-43.957562	-27.393656	-172.535974
01510		0.026224	0.242615	-0.342361	0.907325	-43.207765	-27.272109	-172.336210
01511		0.022447	0.242298	-0.336344	0.909758	-42.485386	-27.127103	-172.111484
01512		0.018561	0.241859	-0.330746	0.912013	-41.820437	-26.964253	-171.864394
01513		0.014685	0.241289	-0.325516	0.914113	-41.202763	-26.788099	-171.610778
01514		0.010933	0.240606	-0.320457	0.916131	-40.603394	-26.606479	-171.369253
01515		0.007274	0.239821	-0.315313	0.918156	-39.989964	-26.421655	-171.143428
01516		0.003660	0.238986	-0.310004	0.920201	-39.354579	-26.237952	-170.927498
01517		0.000122	0.238095	-0.304466	0.922286	-38.688362	-26.056540	-170.727077
01518		-0.003382	0.237225	-0.298699	0.924387	-37.994731	-25.884275	-170.533547
01519		-0.006879	0.236308	-0.292663	0.926531	-37.267436	-25.713203	-170.347823
01520		-0.010409	0.235437	-0.286115	0.928762	-36.479013	-25.554788	-170.167738
01521		-0.013909	0.234694	-0.279296	0.930977	-35.661844	-25.418040	-169.989906
01522		-0.017173	0.234143	-0.272612	0.933040	-34.865073	-25.313294	-169.824185
01523		-0.020118	0.233756	-0.266309	0.934897	-34.116846	-25.236785	-169.675331
01524		-0.022732	0.233475	-0.260341	0.936587	-33.408960	-25.182512	-169.549380
01525		-0.025198	0.233206	-0.254437	0.938212	-32.707905	-25.136144	-169.437108
01526		-0.027579	0.232940	-0.248445	0.939816	-31.995496	-25.096113	-169.335781
01527		-0.030045	0.232599	-0.242101	0.941479	-31.240426	-25.051062	-169.235759
01528		-0.032569	0.232124	-0.235358	0.943220	-30.434589	-24.996142	-169.143807
01529		-0.035157	0.231497	-0.228442	0.944980	-29.606849	-24.926616	-169.052910
01530		-0.037749	0.230756	-0.221754	0.946653	-28.807160	-24.844012	-168.957395
01531		-0.040306	0.229869	-0.215405	0.948228	-28.047912	-24.744533	-168.859972
01532		-0.042898	0.228925	-0.209331	0.949702	-27.324577	-24.636585	-168.750564
01533		-0.045521	0.227883	-0.203419	0.951114	-26.621779	-24.517168	-168.634243
01534		-0.048118	0.226809	-0.197534	0.952482	-25.922696	-24.396818	-168.519086
01535		-0.050725	0.225713	-0.191513	0.953836	-25.208112	-24.277572	-168.404854
01536		-0.053347	0.224654	-0.185139	0.955201	-24.452815	-24.168806	-168.294460
01537		-0.055972	0.223659	-0.178430	0.956560	-23.659414	-24.073730	-168.188002
01538		-0.058513	0.222786	-0.171617	0.957857	-22.856017	-23.998340	-168.088300
01539		-0.060984	0.221998	-0.164727	0.959095	-22.045195	-23.937647	-167.994361
01540		-0.063328	0.221355	-0.157595	0.960289	-21.206497	-23.901715	-167.915782
01541		-0.065533	0.221011	-0.150621	0.961339	-20.392446	-23.903118	-167.840013
01542		-0.067479	0.221007	-0.144163	0.962195	-19.644551	-23.944232	-167.771823
01543		-0.069143	0.221369	-0.138226	0.962865	-18.962979	-24.027915	-167.714241
01544		-0.070638	0.222134	-0.132397	0.963399	-18.299820	-24.161001	-167.664288
01545		-0.072045	0.223427	-0.126502	0.963788	-17.638436	-24.358485	-167.614163
01546		-0.073285	0.225368	-0.120786	0.963976	-17.008968	-24.632359	-167.565334
01547		-0.074384	0.228259	-0.115291	0.963884	-16.423616	-25.016425	-167.506964
01548		-0.075452	0.232593	-0.109633	0.963425	-15.848537	-25.570914	-167.425549
01549		-0.076523	0.239086	-0.103293	0.962451	-15.236152	-26.385481	-167.316524
01550		-0.077590	0.248474	-0.095601	0.960781	-14.519070	-27.556497	-167.187535
01551		-0.078487	0.261400	-0.086317	0.958154	-13.675461	-29.168043	-167.060191
01552		-0.079336	0.278204	-0.074727	0.954319	-12.622320	-31.274197	-166.949232
01553		-0.080299	0.298209	-0.060213	0.949209	-11.257433	-33.811027	-166.897583
01554		-0.090692	0.307752	-0.051086	0.945756	-10.719062	-34.949266	-165.661516
01555		-0.084808	0.294980	-0.059137	0.949893	-11.214744	-33.392235	-166.422604
01556		-0.085593	0.292260	-0.075649	0.949492	-13.325639	-32.823142	-165.756705
01557		-0.077730	0.290083	-0.082690	0.950249	-13.887219	-32.577976	-166.571026
01558		-0.078683	0.288764	-0.086487	0.950234	-14.380983	-32.355838	-166.340780
01559		-0.081945	0.289036	-0.079538	0.950483	-13.608313	-32.439708	-166.169169
01560		-0.082610	0.290794	-0.080857	0.949777	-13.850540	-32.616914	-165.987457
01561		-0.082186	0.294088	-0.086136	0.948334	-14.610033	-32.931077	-165.754287
01562		-0.082693	0.297782	-0.087834	0.946981	-14.954263	-33.330081	-165.519084
01563		-0.083143	0.302029	-0.087933	0.945586	-15.106532	-33.818708	-165.333459
01564		-0.084954	0.306769	-0.083177	0.944329	-14.691812	-34.419625	-165.145456
01565		-0.087414	0.311180	-0.077567	0.943138	-14.181468	-34.988446	-164.918972
01566		-0.089602	0.315107	-0.073298	0.941970	-13.823940	-35.486173	-164.689958
01567		-0.091281	0.318884	-0.069081	0.940855	-13.447951	-35.975243	-164.532805
01568		-0.092543	0.321908	-0.066089	0.939917	-13.195025	-36.363182	-164.402884
01569		-0.093467	0.323918	-0.064124	0.939270	-13.033970	-36.620117	-164.304647
01570		-0.093901	0.325504	-0.062134	0.938812	-12.834802	-36.834555	-164.286592
01571		-0.093782	0.326741	-0.060899	0.938476	-12.701417	-37.002832	-164.320986
01572		-0.093459	0.327525	-0.060508	0.938260	-12.658278	-37.106357	-164.359306
01573		-0.092986	0.327975	-0.060022	0.938181	-12.585241	-37.173937	-164.432046
01574		-0.092257	0.328037	-0.059564	0.938260	-12.492380	-37.198496	-164.549815
01575		-0.091517	0.327465	-0.059889	0.938512	-12.485374	-37.135212	-164.652297
01576		-0.090962	0.326288	-0.060254	0.938952	-12.474183	-36.997150	-164.745197
01577		-0.090480	0.324596	-0.060990	0.939537	-12.501085	-36.791464	-164.826179
01578		-0.089964	0.322396	-0.062444	0.940249	-12.608114	-36.514743	-164.894720
01579		-0.089606	0.319681	-0.065077	0.941031	-12.864792	-36.156769	-164.905902
01580		-0.089334	0.316433	-0.068858	0.941886	-13.261566	-35.717131	-164.873913
01581		-0.089062	0.312453	-0.073440	0.942893	-13.740941	-35.179346	-164.833157
01582		-0.088956	0.307899	-0.077656	0.944063	-14.159057	-34.578598	-164.806737
01583		-0.089073	0.302925	-0.081017	0.945378	-14.459120	-33.939960	-164.801314
01584		-0.089501	0.297542	-0.083285	0.946848	-14.615428	-33.267342	-164.812197
01585		-0.090325	0.292005	-0.084521	0.948383	-14.647929	-32.588184	-164.815853
01586		-0.091385	0.286333	-0.085389	0.949932	-14.638537	-31.896522	-164.805713
01587		-0.092531	0.280523	-0.086398	0.951462	-14.647163	-31.186413	-164.782361
01588		-0.093601	0.274575	-0.087665	0.952975	-14.682671	-30.458598	-164.763220
01589		-0.094446	0.268502	-0.089051	0.954493	-14.722768	-29.718954	-164.771717
01590		-0.094888	0.262563	-0.090207	0.955991	-14.725283	-29.005679	-164.834497
01591		-0.094800	0.257160	-0.090988	0.957394	-14.679637	-28.369426	-164.960717
01592		-0.094156	0.252618	-0.091709	0.958597	-14.633972	-27.842864	-165.134576
01593		-0.093145	0.249424	-0.092335	0.959472	-14.601380	-27.479435	-165.321788
01594		-0.092100	0.248180	-0.092418	0.959887	-14.549651	-27.350046	-165.480519
01595		-0.091082	0.249525	-0.091457	0.959727	-14.432166	-27.535113	-165.603355
01596		-0.089798	0.254601	-0.088581	0.958785	-14.157301	-28.184058	-165.727794
01597		-0.088100	0.264155	-0.083460	0.956815	-13.693458	-29.392526	-165.871043
01598		-0.085791	0.278663	-0.075204	0.953589	-12.924201	-31.235499	-166.091329
01599		-0.083095	0.297135	-0.065410	0.948961	-12.021463	-33.577749	-166.352348
01600		-0.086138	0.287693	-0.083610	0.950170	-14.254762	-32.161647	-165.511144
01601		-0.082152	0.284156	-0.083063	0.951634	-13.944790	-31.814872	-166.139685
01602		-0.074809	0.280624	-0.085862	0.953038	-13.952006	-31.469455	-167.074709
01603		-0.068230	0.278361	-0.094733	0.953355	-14.805726	-31.186624	-167.659552
01604		-0.070080	0.277869	-0.088695	0.953945	-14.082121	-31.178847	-167.649489
01605		-0.072535	0.279065	-0.079137	0.954253	-12.967341	-31.407188	-167.646078
01606		-0.071413	0.281520	-0.084119	0.953190	-13.627195	-31.646035	-167.551919
01607		-0.070872	0.285043	-0.090053	0.951640	-14.460914	-31.988699	-167.316274
01608		-0.071795	0.288767	-0.091714	0.950288	-14.804595	-32.388278	-167.037419
01609		-0.073132	0.293020	-0.089400	0.949104	-14.664153	-32.897451	-166.836580
01610		-0.075659	0.297231	-0.083387	0.948143	-14.086365	-33.436863	-166.624786
01611		-0.078522	0.300693	-0.077407	0.947326	-13.506252	-33.886626	-166.391325
01612		-0.080384	0.303776	-0.072193	0.946597	-12.977094	-34.298297	-166.272242
01613		-0.080767	0.306509	-0.069450	0.945889	-12.703674	-34.654640	-166.260891
01614		-0.079863	0.308277	-0.069372	0.945397	-12.703498	-34.876366	-166.337625
01615		-0.078216	0.309473	-0.070172	0.945085	-12.773317	-35.028164	-166.491962
01616		-0.076001	0.310523	-0.071486	0.944822	-12.883762	-35.163529	-166.704063
01617		-0.073937	0.311292	-0.073384	0.944587	-13.070327	-35.256215	-166.879203
01618		-0.072340	0.311943	-0.075074	0.944364	-13.245665	-35.331988	-167.003703
01619		-0.070825	0.312818	-0.076369	0.944085	-13.378025	-35.438965	-167.127460
01620		-0.069178	0.313557	-0.077880	0.943838	-13.529870	-35.529347	-167.263153
01621		-0.067379	0.313920	-0.079732	0.943693	-13.710938	-35.573235	-167.414566
01622		-0.065395	0.313972	-0.081829	0.943636	-13.908757	-35.580646	-167.588568
01623		-0.063197	0.313436	-0.084858	0.943697	-14.206852	-35.510448	-167.767409
01624		-0.061086	0.312242	-0.089019	0.943848	-14.642528	-35.348046	-167.905348
01625		-0.059134	0.310396	-0.094038	0.944095	-15.182145	-35.097118	-168.005380
01626		-0.057461	0.307850	-0.099726	0.944447	-15.802938	-34.752744	-168.063031
01627		-0.056313	0.304639	-0.104988	0.944987	-16.369076	-34.328470	-168.092191
01628		-0.055681	0.300835	-0.109134	0.945774	-16.790488	-33.840985	-168.120074
01629		-0.055732	0.296411	-0.111664	0.946872	-17.007770	-33.290143	-168.143907
01630		-0.056434	0.291401	-0.112801	0.948249	-17.051243	-32.677483	-168.155636
01631		-0.057587	0.285783	-0.113335	0.949825	-17.017775	-31.994304	-168.148929
01632		-0.059025	0.279588	-0.113760	0.951528	-16.966525	-31.241199	-168.124838
01633		-0.060555	0.272913	-0.114332	0.953300	-16.926395	-30.430184	-168.095852
01634		-0.062169	0.265951	-0.114975	0.955084	-16.892291	-29.585022	-168.060348
01635		-0.063800	0.259007	-0.115881	0.956774	-16.893341	-28.740035	-168.012495
01636		-0.065368	0.252152	-0.117018	0.958360	-16.924070	-27.904915	-167.962334
01637		-0.066854	0.245517	-0.117930	0.959867	-16.929472	-27.100945	-167.923271
01638		-0.068171	0.239178	-0.118432	0.961312	-16.885972	-26.340375	-167.908794
01639		-0.069271	0.233249	-0.118456	0.962686	-16.787474	-25.637734	-167.922736
01640		-0.070266	0.227906	-0.118119	0.963934	-16.655768	-25.009829	-167.942708
01641		-0.071123	0.223477	-0.117431	0.964992	-16.498274	-24.494297	-167.964434
01642		-0.071818	0.220393	-0.116228	0.965795	-16.303010	-24.142946	-167.985229
01643		-0.072303	0.219324	-0.114208	0.966243	-16.044808	-24.036895	-168.003842
01644		-0.072393	0.221289	-0.110755	0.966190	-15.663570	-24.304084	-168.037053
01645		-0.071944	0.227400	-0.105160	0.965430	-15.089134	-25.084031	-168.100997
01646		-0.070516	0.238394	-0.096939	0.963742	-14.258782	-26.476384	-168.259503
01647		-0.067843	0.255020	-0.086115	0.960701	-13.168389	-28.575171	-168.553720
01648		-0.064125	0.277495	-0.073975	0.955726	-11.966683	-31.394735	-168.948501
01649		-0.066775	0.288043	-0.063532	0.953172	-10.934839	-32.726077	-168.765693
01650		-0.063237	0.269748	-0.090019	0.956626	-13.828757	-30.312129	-168.673338
01651		-0.056898	0.272164	-0.094523	0.955905	-14.241989	-30.635196	-169.267677
01652		-0.047831	0.270457	-0.094399	0.956898	-13.878896	-30.568596	-170.466869
01653		-0.047627	0.267719	-0.100239	0.957084	-14.565944	-30.192751	-170.353351
01654		-0.053012	0.269364	-0.086908	0.957643	-13.073513	-30.443927	-170.091310
01655		-0.057739	0.271967	-0.078659	0.957347	-12.230400	-30.773832	-169.719457
01656		-0.057547	0.275066	-0.085606	0.955876	-13.180328	-31.064673	-169.431346
01657		-0.057380	0.278420	-0.093797	0.954145	-14.303188	-31.368616	-169.081526
01658		-0.057822	0.281755	-0.095875	0.952932	-14.663453	-31.728822	-168.867200
01659		-0.058024	0.285134	-0.095660	0.951935	-14.721521	-32.124274	-168.763687
01660		-0.058680	0.288417	-0.094027	0.951069	-14.610658	-32.518554	-168.656275
01661		-0.059673	0.291015	-0.092976	0.950318	-14.572748	-32.821036	-168.500781
01662		-0.060021	0.293213	-0.091808	0.949734	-14.486468	-33.088126	-168.443417
01663		-0.059555	0.294925	-0.091278	0.949284	-14.440798	-33.302819	-168.480266
01664		-0.058434	0.295931	-0.091751	0.948995	-14.484122	-33.432260	-168.581901
01665		-0.056842	0.296531	-0.092828	0.948800	-14.578563	-33.514242	-168.731804
01666		-0.054836	0.297194	-0.094054	0.948590	-14.678063	-33.608543	-168.928108
01667		-0.052714	0.298034	-0.095529	0.948299	-14.809851	-33.723026	-169.125087
01668		-0.050592	0.299093	-0.097463	0.947884	-15.007505	-33.858920	-169.297766
01669		-0.048150	0.300415	-0.100057	0.947323	-15.286006	-34.024330	-169.478339
01670		-0.045359	0.301735	-0.103705	0.946649	-15.690625	-34.184970	-169.661223
01671		-0.042398	0.302740	-0.108557	0.945921	-16.241180	-34.300365	-169.824576
01672		-0.039567	0.303593	-0.113405	0.945201	-16.793917	-34.398024	-169.973661
01673		-0.036748	0.304387	-0.117885	0.944511	-17.297718	-34.494737	-170.136484
01674		-0.033568	0.304945	-0.123298	0.943758	-17.906677	-34.562893	-170.313603
01675		-0.030064	0.305264	-0.130304	0.942831	-18.710634	-34.596236	-170.472992
01676		-0.026532	0.305391	-0.138486	0.941729	-19.667689	-34.599891	-170.591675
01677		-0.022900	0.305096	-0.147766	0.940509	-20.758736	-34.549894	-170.690273
01678		-0.019188	0.304334	-0.157166	0.939314	-21.852535	-34.450861	-170.809208
01679		-0.015585	0.303524	-0.165860	0.938147	-22.856539	-34.355854	-170.944965
01680		-0.012407	0.302569	-0.174136	0.937003	-23.818403	-34.242448	-171.048554
01681		-0.009855	0.301550	-0.181725	0.935920	-24.711439	-34.116114	-171.102731
01682		-0.007884	0.300881	-0.188760	0.934761	-25.562941	-34.023072	-171.092896
01683		-0.006262	0.300382	-0.195451	0.933558	-26.387271	-33.945167	-171.046245
01684		-0.004688	0.299675	-0.202104	0.932377	-27.202781	-33.843453	-171.003914
01685		-0.002882	0.298627	-0.209328	0.931126	-28.076854	-33.704716	-170.982571
01686		-0.000646	0.297135	-0.218055	0.929603	-29.124839	-33.514880	-170.974978
01687		0.002085	0.295256	-0.228406	0.927713	-30.362633	-33.283204	-170.983860
01688		0.005274	0.293044	-0.240063	0.925455	-31.751936	-33.019869	-171.015996
01689		0.008864	0.290559	-0.252453	0.922911	-33.220102	-32.737822	-171.085624
01690		0.012782	0.287700	-0.265575	0.920074	-34.767522	-32.425320	-171.189270
01691		0.016912	0.284544	-0.279619	0.916821	-36.427635	-32.087311	-171.302538
01692		0.021184	0.280992	-0.294194	0.913260	-38.147397	-31.715542	-171.438551
01693		0.025395	0.277222	-0.308640	0.909530	-39.850517	-31.329464	-171.590140
01694		0.029304	0.273467	-0.321953	0.905927	-41.415788	-30.954096	-171.754346
01695		0.032743	0.269807	-0.333173	0.902844	-42.718434	-30.597570	-171.941736
01696		0.035685	0.266275	-0.342013	0.900473	-43.718996	-30.262084	-172.156379
01697		0.038154	0.262786	-0.348954	0.898732	-44.477765	-29.932314	-172.386364
01698		0.040191	0.259152	-0.354621	0.897479	-45.071303	-29.582299	-172.623033
01699		0.041810	0.255414	-0.359582	0.896502	-45.577745	-29.211000	-172.844617
01700		0.043001	0.251567	-0.364570	0.895519	-46.096738	-28.810848	-173.024522
01701		0.043932	0.247724	-0.370142	0.894258	-46.703578	-28.397182	-173.156881
01702		0.044635	0.243976	-0.376377	0.892650	-47.410837	-27.980446	-173.238963
01703		0.045135	0.240536	-0.382576	0.890921	-48.129214	-27.589458	-173.285691
01704		0.045342	0.237529	-0.387913	0.889408	-48.751984	-27.238707	-173.306898
01705		0.045327	0.235018	-0.391569	0.888474	-49.167194	-26.943487	-173.332267
01706		0.045085	0.233023	-0.393272	0.888260	-49.338375	-26.707205	-173.366878
01707		0.044733	0.231412	-0.393256	0.888705	-49.290836	-26.519208	-173.422203
01708		0.044371	0.229953	-0.392296	0.889526	-49.120566	-26.353651	-173.497215
01709		0.044110	0.228598	-0.391347	0.890306	-48.953649	-26.203996	-173.576513
01710		0.043990	0.227206	-0.391191	0.890737	-48.890859	-26.051537	-173.648046
01711		0.044098	0.225851	-0.392306	0.890586	-48.996947	-25.904964	-173.703082
01712		0.044430	0.224609	-0.394735	0.889809	-49.280239	-25.772239	-173.736185
01713		0.044995	0.223635	-0.398011	0.888566	-49.682283	-25.673794	-173.754005
01714		0.045666	0.222991	-0.401216	0.887252	-50.083402	-25.616252	-173.766999
01715		0.046302	0.222745	-0.403356	0.886310	-50.353722	-25.606908	-173.785681
01716		0.046818	0.222838	-0.404063	0.885937	-50.442626	-25.637490	-173.815469
01717		0.047136	0.223158	-0.403661	0.886023	-50.391792	-25.689887	-173.844133
01718		0.047199	0.223577	-0.402776	0.886316	-50.283481	-25.743394	-173.853924
01719		0.047064	0.224088	-0.401872	0.886605	-50.179331	-25.796937	-173.837216
01720		0.046744	0.224696	-0.401228	0.886760	-50.117481	-25.849789	-173.786328
01721		0.046303	0.225512	-0.400810	0.886765	-50.095475	-25.917100	-173.702759
01722		0.045773	0.226587	-0.400169	0.886808	-50.053457	-26.009017	-173.601128
01723		0.045098	0.227995	-0.398751	0.887120	-49.919828	-26.134758	-173.488204
01724		0.044155	0.229698	-0.396289	0.887831	-49.659544	-26.286637	-173.361491
01725		0.043032	0.231605	-0.392970	0.888866	-49.293859	-26.458682	-173.230462
01726		0.041823	0.233616	-0.389333	0.889997	-48.891159	-26.641153	-173.094744
01727		0.040679	0.235487	-0.386007	0.891005	-48.525698	-26.810744	-172.965108
01728		0.039653	0.237163	-0.383388	0.891737	-48.248031	-26.960737	-172.837669
01729		0.038807	0.238761	-0.381465	0.892172	-48.059011	-27.106069	-172.712722
01730		0.038091	0.240348	-0.380218	0.892309	-47.958998	-27.251446	-172.581081
01731		0.037474	0.242078	-0.379632	0.892117	-47.952010	-27.411434	-172.430441
01732		0.036869	0.243938	-0.379598	0.891650	-48.025071	-27.581200	-172.255059
01733		0.036292	0.245836	-0.380031	0.890968	-48.163410	-27.752145	-172.064334
01734		0.035820	0.247628	-0.380823	0.890152	-48.345717	-27.913324	-171.878704
01735		0.035444	0.249296	-0.381791	0.889287	-48.546537	-28.063881	-171.704343
01736		0.035087	0.250810	-0.382834	0.888426	-48.752592	-28.197846	-171.537810
01737		0.034795	0.252195	-0.384082	0.887507	-48.981464	-28.318866	-171.378498
01738		0.034622	0.253384	-0.385819	0.886421	-49.268279	-28.419664	-171.226855
01739		0.034611	0.254329	-0.388197	0.885111	-49.631042	-28.495604	-171.085290
01740		0.034752	0.255016	-0.391125	0.883618	-50.057211	-28.545556	-170.956880
01741		0.035041	0.255476	-0.394550	0.881949	-50.540823	-28.573478	-170.841022
01742		0.035538	0.255659	-0.398734	0.879992	-51.114850	-28.574170	-170.738748
01743		0.036268	0.255517	-0.403679	0.877747	-51.777565	-28.544403	-170.656064
01744		0.037142	0.255066	-0.409186	0.875288	-52.504637	-28.483733	-170.589225
01745		0.038074	0.254389	-0.414992	0.872708	-53.264816	-28.399379	-170.533130
01746		0.039038	0.253562	-0.421010	0.870019	-54.049902	-28.299313	-170.483161
01747		0.039970	0.252669	-0.427002	0.867312	-54.831516	-28.191501	-170.435478
01748		0.040855	0.251745	-0.432661	0.864731	-55.568323	-28.082066	-170.396941
01749		0.041583	0.250912	-0.437936	0.862280	-56.259982	-27.978097	-170.348949
01750		0.042241	0.250223	-0.442958	0.859879	-56.925209	-27.888059	-170.292757
01751		0.042825	0.249723	-0.447641	0.857567	-57.553644	-27.817018	-170.227571
01752		0.043361	0.249411	-0.452045	0.855319	-58.152999	-27.765482	-170.153770
01753		0.043962	0.249216	-0.456401	0.853028	-58.750996	-27.729989	-170.080238
01754		0.044721	0.249030	-0.460913	0.850614	-59.370254	-27.702527	-170.017258
01755		0.045630	0.248840	-0.465306	0.848226	-59.971642	-27.684892	-169.973937
01756		0.046598	0.248711	-0.469228	0.846047	-60.509155	-27.682597	-169.948432
01757		0.047604	0.248655	-0.472650	0.844101	-60.979077	-27.696001	-169.938484
01758		0.048648	0.248668	-0.475893	0.842213	-61.427207	-27.720936	-169.933163
01759		0.049701	0.248722	-0.479351	0.840173	-61.909271	-27.748231	-169.917354
01760		0.050718	0.248737	-0.483204	0.837897	-62.448675	-27.764963	-169.886029
01761		0.051639	0.248764	-0.487160	0.835539	-63.006955	-27.776081	-169.839359
01762		0.052308	0.248759	-0.490968	0.833266	-63.548272	-27.770366	-169.773438
01763		0.052746	0.248826	-0.494388	0.831194	-64.041643	-27.761939	-169.691533
01764		0.052925	0.248836	-0.497557	0.829287	-64.501054	-27.734741	-169.595988
01765		0.052932	0.248830	-0.500409	0.827570	-64.916996	-27.698892	-169.495276
01766		0.052859	0.248731	-0.503232	0.825892	-65.326246	-27.648769	-169.394616
01767		0.052884	0.248687	-0.506199	0.824088	-65.758387	-27.608008	-169.294673
01768		0.053048	0.248665	-0.509394	0.822113	-66.223933	-27.574732	-169.198837
01769		0.053406	0.248696	-0.512584	0.820095	-66.689375	-27.558815	-169.118526
01770		0.053824	0.248532	-0.515875	0.818051	-67.160681	-27.526354	-169.055755
01771		0.054399	0.248465	-0.518721	0.816232	-67.569707	-27.519202	-169.016877
01772		0.054960	0.248471	-0.520964	0.814763	-67.894281	-27.526234	-168.992038
01773		0.055329	0.248385	-0.522949	0.813491	-68.179361	-27.515341	-168.964454
01774		0.055730	0.248134	-0.525145	0.812124	-68.487637	-27.488080	-168.945750
01775		0.056248	0.247660	-0.527873	0.810463	-68.862961	-27.440159	-168.937540
01776		0.056444	0.247321	-0.529930	0.809210	-69.150053	-27.393025	-168.910468
01777		0.056347	0.247081	-0.530737	0.808761	-69.259664	-27.352880	-168.891414
01778		0.056180	0.246906	-0.531002	0.808652	-69.292736	-27.321625	-168.879620
01779		0.056126	0.246731	-0.531291	0.808519	-69.327816	-27.297517	-168.878165
01780		0.056168	0.246516	-0.531708	0.808308	-69.378789	-27.274370	-168.884925
01781		0.056246	0.246230	-0.532315	0.807990	-69.454227	-27.244209	-168.894193
01782		0.056258	0.245992	-0.532901	0.807675	-69.529625	-27.214533	-168.893977
01783		0.056175	0.245853	-0.533438	0.807369	-69.603887	-27.188466	-168.877881
01784		0.056050	0.245766	-0.534051	0.806999	-69.692664	-27.163653	-168.850782
01785		0.055893	0.245768	-0.534486	0.806721	-69.759722	-27.147338	-168.819619
01786		0.055712	0.245883	-0.534243	0.806860	-69.731385	-27.149484	-168.800919
01787		0.055501	0.245895	-0.533632	0.807275	-69.643498	-27.144962	-168.801020
01788		0.055396	0.245769	-0.533139	0.807646	-69.564972	-27.132937	-168.818543
01789		0.055427	0.245581	-0.532722	0.807976	-69.493187	-27.123001	-168.851780
01790		0.055548	0.245302	-0.532467	0.808220	-69.439849	-27.108134	-168.895595
01791		0.055783	0.244963	-0.532482	0.808297	-69.422354	-27.091433	-168.945924
01792		0.056089	0.244642	-0.532503	0.808360	-69.405789	-27.081197	-169.001644
01793		0.056401	0.244304	-0.532408	0.808503	-69.371062	-27.071199	-169.063403
01794		0.056689	0.243965	-0.532304	0.808653	-69.335356	-27.059607	-169.123075
01795		0.056971	0.243679	-0.532211	0.808781	-69.303984	-27.052464	-169.177500
01796		0.057161	0.243398	-0.532230	0.808840	-69.290598	-27.038282	-169.218504
01797		0.057388	0.243122	-0.532369	0.808815	-69.295055	-27.025346	-169.258379
01798		0.057703	0.242825	-0.532590	0.808736	-69.309550	-27.015237	-169.305740
01799		0.058144	0.242459	-0.532900	0.808610	-69.332357	-27.005736	-169.368112
01800		0.058625	0.242089	-0.533113	0.808546	-69.339910	-26.999796	-169.438166
01801		0.059108	0.241715	-0.532947	0.808732	-69.291047	-26.998532	-169.522050
01802		0.059504	0.241400	-0.532378	0.809172	-69.186091	-27.002204	-169.606934
01803		0.059860	0.241097	-0.531718	0.809670	-69.068581	-27.005415	-169.690156
01804		0.060220	0.240800	-0.531184	0.810082	-68.970288	-27.007721	-169.768720
01805		0.060606	0.240477	-0.530813	0.810392	-68.894617	-27.007177	-169.846171
01806		0.061037	0.240156	-0.530678	0.810543	-68.853746	-27.006780	-169.919543
01807		0.061537	0.239788	-0.530758	0.810562	-68.841694	-27.003701	-169.995833
01808		0.062101	0.239406	-0.530930	0.810519	-68.841792	-27.002511	-170.076422
01809		0.062707	0.239025	-0.531005	0.810536	-68.827204	-27.005245	-170.164470
01810		0.063365	0.238627	-0.530905	0.810667	-68.784976	-27.011981	-170.265342
01811		0.064089	0.238207	-0.530717	0.810858	-68.727711	-27.021793	-170.377613
01812		0.064912	0.237771	-0.530567	0.811018	-68.674293	-27.036139	-170.499586
01813		0.065871	0.237286	-0.530446	0.811161	-68.621167	-27.054425	-170.638013
01814		0.066944	0.236797	-0.530332	0.811292	-68.567208	-27.079608	-170.787971
01815		0.068123	0.236265	-0.530232	0.811413	-68.512311	-27.107350	-170.951182
01816		0.069385	0.235667	-0.530199	0.811502	-68.463085	-27.133462	-171.125775
01817		0.070713	0.235025	-0.530048	0.811673	-68.393449	-27.160793	-171.314562
01818		0.072114	0.234293	-0.529739	0.811962	-68.295410	-27.185815	-171.523434
01819		0.073659	0.233454	-0.529268	0.812372	-68.166582	-27.211349	-171.761033
01820		0.075347	0.232493	-0.528770	0.812817	-68.026408	-27.234401	-172.023508
01821		0.077140	0.231185	-0.528724	0.813052	-67.936991	-27.226028	-172.307401
01822		0.078959	0.229819	-0.528441	0.813449	-67.810009	-27.215704	-172.606689
01823		0.080729	0.228367	-0.527684	0.814175	-67.609873	-27.197588	-172.924580
01824		0.082616	0.226888	-0.526833	0.814950	-67.393686	-27.184311	-173.259520
01825		0.084626	0.225226	-0.526201	0.815613	-67.201299	-27.158580	-173.612695
01826		0.086828	0.223426	-0.525681	0.816211	-67.018179	-27.130089	-173.991314
01827		0.089087	0.221541	-0.525072	0.816874	-66.818419	-27.096848	-174.384978
01828		0.091406	0.219573	-0.524608	0.817447	-66.637260	-27.057381	-174.785333
01829		0.093908	0.217555	-0.524318	0.817889	-66.478524	-27.022953	-175.201240
01830		0.096464	0.215425	-0.524252	0.818197	-66.349205	-26.978962	-175.622514
01831		0.099173	0.213273	-0.524131	0.818515	-66.210031	-26.942288	-176.062397
01832		0.101909	0.211025	-0.523743	0.819009	-66.028684	-26.898529	-176.521004
01833		0.104800	0.208775	-0.523031	0.819676	-65.798530	-26.864533	-177.006411
01834		0.107849	0.206457	-0.522356	0.820298	-65.570776	-26.832415	-177.511003
01835		0.111042	0.204129	-0.521785	0.820818	-65.357545	-26.806905	-178.026845
01836		0.114268	0.201707	-0.521421	0.821205	-65.172999	-26.772545	-178.544740
01837		0.117535	0.199282	-0.521222	0.821462	-65.013865	-26.739133	-179.060825
01838		0.120821	0.196872	-0.521119	0.821632	-64.870970	-26.707560	-179.573736
01839		0.124156	0.194461	-0.520968	0.821804	-64.721824	-26.678334	179.907135
01840		0.127529	0.192105	-0.520726	0.821995	-64.562057	-26.656106	179.385278
01841		0.130859	0.189827	-0.520248	0.822304	-64.372108	-26.637778	178.865556
01842		0.134056	0.187594	-0.519559	0.822737	-64.155966	-26.614253	178.355791
01843		0.137209	0.185337	-0.518971	0.823100	-63.956171	-26.584452	177.852943
01844		0.140360	0.183067	-0.518528	0.823355	-63.779148	-26.552639	177.354970
01845		0.143515	0.180797	-0.518105	0.823579	-63.606461	-26.520140	176.857716
01846		0.146673	0.178466	-0.517707	0.823782	-63.437378	-26.481015	176.357395
01847		0.149812	0.176147	-0.517228	0.824016	-63.258793	-26.440675	175.857657
01848		0.152787	0.174030	-0.516239	0.824540	-63.014347	-26.406671	175.371479
01849		0.155530	0.172144	-0.514835	0.825301	-62.719798	-26.377626	174.911076
01850		0.158151	0.170408	-0.513513	0.825987	-62.443914	-26.355129	174.476604
01851		0.160801	0.168686	-0.512380	0.826532	-62.196806	-26.335807	174.046838
01852		0.163525	0.166905	-0.511390	0.826972	-61.969213	-26.314702	173.610540
01853		0.166320	0.165107	-0.510510	0.827319	-61.757329	-26.296022	173.169753
01854		0.169098	0.163382	-0.509585	0.827669	-61.541642	-26.282076	172.734098
01855		0.171750	0.161784	-0.508491	0.828109	-61.306938	-26.270968	172.314312
01856		0.174284	0.160323	-0.507415	0.828524	-61.080433	-26.265537	171.916650
01857		0.176707	0.158947	-0.506446	0.828868	-60.873600	-26.262062	171.539676
01858		0.178966	0.157716	-0.505374	0.829273	-60.657793	-26.261505	171.185911
01859		0.181083	0.156626	-0.504131	0.829776	-60.422762	-26.264034	170.850401
01860		0.183172	0.155586	-0.502942	0.830235	-60.197266	-26.269634	170.522754
01861		0.185212	0.154516	-0.501840	0.830649	-59.985145	-26.269243	170.201497
01862		0.187244	0.153418	-0.500837	0.831002	-59.787629	-26.266000	169.882842
01863		0.189247	0.152277	-0.499945	0.831295	-59.606447	-26.257166	169.568294
01864		0.191295	0.151081	-0.499224	0.831478	-59.448871	-26.246857	169.251560
01865		0.193376	0.149862	-0.498680	0.831544	-59.316432	-26.237891	168.935839
01866		0.195447	0.148688	-0.498136	0.831597	-59.185190	-26.232515	168.623904
01867		0.197453	0.147624	-0.497551	0.831663	-59.051243	-26.233682	168.324297
01868		0.199446	0.146659	-0.497000	0.831687	-58.924097	-26.244259	168.032952
01869		0.201443	0.145755	-0.496501	0.831663	-58.805456	-26.261652	167.746529
01870		0.203468	0.144887	-0.496042	0.831595	-58.692772	-26.284770	167.460370
01871		0.205503	0.144095	-0.495626	0.831481	-58.587139	-26.316523	167.178947
01872		0.207524	0.143351	-0.495277	0.831315	-58.492203	-26.353169	166.903813
01873		0.209549	0.142612	-0.494931	0.831141	-58.397606	-26.390378	166.628516
01874		0.211606	0.141853	-0.494730	0.830869	-58.323387	-26.429590	166.353253
01875		0.213592	0.141254	-0.494322	0.830706	-58.222285	-26.477488	166.087885
01876		0.215559	0.140699	-0.494003	0.830481	-58.134943	-26.530248	165.829870
01877		0.217492	0.140179	-0.493848	0.830157	-58.072102	-26.587074	165.582834
01878		0.219400	0.139642	-0.493798	0.829776	-58.024639	-26.642421	165.341028
01879		0.221263	0.139151	-0.493707	0.829417	-57.972546	-26.699177	165.105161
01880		0.223061	0.138651	-0.493605	0.829080	-57.920013	-26.750999	164.875446
01881		0.224791	0.138149	-0.493610	0.828694	-57.883976	-26.800474	164.656530
01882		0.226382	0.137711	-0.493537	0.828377	-57.839963	-26.846919	164.453767
01883		0.227862	0.137322	-0.493359	0.828141	-57.783349	-26.890021	164.262303
01884		0.229240	0.136940	-0.493150	0.827949	-57.724109	-26.927186	164.081414
01885		0.230584	0.136520	-0.492935	0.827773	-57.664534	-26.958212	163.901988
01886		0.231834	0.136040	-0.492843	0.827558	-57.623828	-26.979910	163.733529
01887		0.233025	0.135535	-0.492798	0.827333	-57.590799	-26.996367	163.571925
01888		0.234107	0.135059	-0.492750	0.827134	-57.559811	-27.009363	163.423707
01889		0.235136	0.134595	-0.492687	0.826955	-57.527778	-27.020227	163.281630
01890		0.236190	0.134095	-0.492767	0.826689	-57.515538	-27.031673	163.139637
01891		0.237260	0.133559	-0.492930	0.826371	-57.514812	-27.042014	162.996470
01892		0.238281	0.133128	-0.492878	0.826178	-57.484942	-27.056097	162.857408
01893		0.239252	0.132668	-0.492848	0.825990	-57.458951	-27.064598	162.723093
01894		0.240192	0.132245	-0.492884	0.825763	-57.443399	-27.076483	162.596345
01895		0.241079	0.131831	-0.492934	0.825541	-57.430935	-27.086490	162.476461
01896		0.241966	0.131375	-0.493140	0.825231	-57.440691	-27.095580	162.359603
01897		0.242837	0.130974	-0.493285	0.824952	-57.442338	-27.108045	162.245356
01898		0.243617	0.130680	-0.493285	0.824769	-57.425678	-27.123223	162.142343
