// General information: 
//  MT Manager version: 2022.2.0 
//  XDA version: 2022.2.0 build 7381 rev 124627 built on 2023-07-19
// Device information: 
//  DeviceId: 10B4151A
//  ProductCode: MTW2-3A7G6
//  Firmware Version: 4.14.0
//  Hardware Version: 3.0.0
// Device settings: 
//  Filter Profile: human(46.1)
//  Option Flags: Orientation Smoother Disabled, Position/Velocity Smoother Disabled, Continuous Zero Rotation Update Disabled, AHS Disabled, ICC Disabled
// Coordinate system: ENU
PacketCounter	SampleTimeFine	Quat_q0	Quat_q1	Quat_q2	Quat_q3	Roll	Pitch	Yaw
00370		-0.333296	0.651087	0.373220	0.570707	-176.374015	-82.722951	56.452266
00371		-0.333315	0.650798	0.373313	0.570965	-176.568365	-82.759994	56.655717
00372		-0.333272	0.650552	0.373375	0.571229	-176.776112	-82.793116	56.864091
00373		-0.333281	0.650282	0.373441	0.571488	-176.960275	-82.829320	57.053934
00374		-0.333299	0.649997	0.373533	0.571742	-177.158579	-82.865568	57.261260
00375		-0.333298	0.649745	0.373617	0.571974	-177.349043	-82.897292	57.458455
00376		-0.333300	0.649501	0.373720	0.572182	-177.540629	-82.926005	57.658798
00377		-0.333298	0.649286	0.373799	0.572376	-177.709331	-82.952329	57.833764
00378		-0.333289	0.649108	0.373878	0.572532	-177.860864	-82.973067	57.991137
00379		-0.333288	0.648960	0.373931	0.572666	-177.977550	-82.991207	58.112048
00380		-0.333255	0.648878	0.373915	0.572788	-178.054238	-83.005159	58.183678
00381		-0.333235	0.648811	0.373870	0.572905	-178.100479	-83.019276	58.223362
00382		-0.333228	0.648786	0.373802	0.572982	-178.099963	-83.028931	58.215440
00383		-0.333212	0.648787	0.373705	0.573053	-178.080167	-83.037068	58.184754
00384		-0.333195	0.648803	0.373606	0.573110	-178.049830	-83.043090	58.143291
00385		-0.333169	0.648829	0.373480	0.573177	-178.011336	-83.049843	58.090395
00386		-0.333128	0.648865	0.373371	0.573232	-177.984069	-83.053845	58.048824
00387		-0.333068	0.648915	0.373246	0.573291	-177.957196	-83.056926	58.004476
00388		-0.333008	0.648970	0.373120	0.573346	-177.926999	-83.059364	57.956711
00389		-0.332977	0.649009	0.373008	0.573392	-177.888025	-83.062986	57.904347
00390		-0.332954	0.649028	0.372904	0.573451	-177.858851	-83.068971	57.863010
00391		-0.332980	0.649023	0.372783	0.573521	-177.799231	-83.079891	57.794062
00392		-0.332975	0.649038	0.372636	0.573603	-177.743548	-83.090043	57.723746
00393		-0.332970	0.649044	0.372444	0.573723	-177.677582	-83.105282	57.638842
00394		-0.332967	0.649056	0.372226	0.573853	-177.595997	-83.121905	57.535955
00395		-0.332946	0.649077	0.371993	0.573992	-177.518460	-83.138374	57.434014
00396		-0.332897	0.649117	0.371775	0.574117	-177.455833	-83.150835	57.346066
00397		-0.332880	0.649163	0.371579	0.574202	-177.370678	-83.160294	57.240546
00398		-0.332841	0.649194	0.371444	0.574277	-177.334110	-83.167052	57.187487
00399		-0.332804	0.649227	0.371319	0.574341	-177.298603	-83.172555	57.136569
00400		-0.332763	0.649247	0.371211	0.574412	-177.281198	-83.178761	57.105089
00401		-0.332734	0.649258	0.371104	0.574486	-177.259801	-83.186115	57.070663
00402		-0.332688	0.649277	0.371003	0.574556	-177.248549	-83.191874	57.045425
00403		-0.332657	0.649313	0.370882	0.574612	-177.207668	-83.196633	56.990110
00404		-0.332628	0.649350	0.370734	0.574682	-177.154440	-83.203505	56.920155
00405		-0.332627	0.649364	0.370582	0.574764	-177.090359	-83.213934	56.841400
00406		-0.332622	0.649392	0.370443	0.574825	-177.025949	-83.221287	56.763304
00407		-0.332651	0.649416	0.370302	0.574873	-176.934386	-83.229179	56.660871
00408		-0.332664	0.649446	0.370176	0.574913	-176.857737	-83.235045	56.573523
00409		-0.332665	0.649486	0.370040	0.574954	-176.780555	-83.240037	56.483511
00410		-0.332685	0.649518	0.369919	0.574985	-176.698461	-83.245135	56.391691
00411		-0.332735	0.649517	0.369814	0.575024	-176.618443	-83.253695	56.306324
00412		-0.332797	0.649495	0.369757	0.575050	-176.559429	-83.261415	56.247561
00413		-0.332852	0.649487	0.369695	0.575067	-176.494744	-83.267518	56.181969
00414		-0.332882	0.649500	0.369657	0.575060	-176.447207	-83.268469	56.133658
00415		-0.332913	0.649510	0.369630	0.575048	-176.404643	-83.268925	56.091468
00416		-0.332921	0.649548	0.369555	0.575048	-176.344786	-83.269124	56.025321
00417		-0.333046	0.649511	0.369509	0.575046	-176.245486	-83.277817	55.933169
00418		-0.333158	0.649478	0.369443	0.575061	-176.147595	-83.287710	55.839265
00419		-0.333191	0.649493	0.369333	0.575096	-176.068700	-83.294173	55.752894
00420		-0.333221	0.649503	0.369203	0.575150	-175.986805	-83.303055	55.661384
00421		-0.333275	0.649469	0.369124	0.575208	-175.932864	-83.314473	55.604706
00422		-0.333211	0.649523	0.368968	0.575285	-175.892715	-83.319491	55.543786
00423		-0.333280	0.649508	0.368776	0.575386	-175.770049	-83.337066	55.409011
00424		-0.333492	0.649398	0.368680	0.575448	-175.622355	-83.360473	55.271292
00425		-0.333596	0.649417	0.368658	0.575380	-175.512639	-83.358459	55.169438
00426		-0.333657	0.649483	0.368701	0.575243	-175.436098	-83.344241	55.103065
00427		-0.333729	0.649523	0.368794	0.575097	-175.385294	-83.329839	55.068147
00428		-0.333783	0.649561	0.368872	0.574972	-175.346260	-83.317034	55.041988
00429		-0.333850	0.649555	0.368911	0.574915	-175.308237	-83.314278	55.013928
00430		-0.333875	0.649566	0.368925	0.574879	-175.285960	-83.311122	54.995422
00431		-0.333911	0.649571	0.368894	0.574873	-175.239952	-83.312624	54.949785
00432		-0.333947	0.649571	0.368816	0.574901	-175.178052	-83.318577	54.883838
00433		-0.333999	0.649578	0.368721	0.574925	-175.093078	-83.324887	54.794523
00434		-0.334062	0.649583	0.368634	0.574937	-175.001251	-83.330554	54.700338
00435		-0.334171	0.649555	0.368594	0.574932	-174.910454	-83.337331	54.615771
00436		-0.334271	0.649526	0.368565	0.574925	-174.832486	-83.343383	54.544174
00437		-0.334412	0.649485	0.368559	0.574893	-174.735098	-83.349024	54.459285
00438		-0.334514	0.649431	0.368543	0.574904	-174.675732	-83.357748	54.407696
00439		-0.334613	0.649379	0.368508	0.574929	-174.609676	-83.367908	54.347266
00440		-0.334716	0.649319	0.368458	0.574969	-174.538647	-83.380539	54.280758
00441		-0.334800	0.649283	0.368391	0.575003	-174.461694	-83.390668	54.205026
00442		-0.334871	0.649254	0.368314	0.575044	-174.387586	-83.400886	54.130025
00443		-0.334953	0.649216	0.368237	0.575088	-174.308537	-83.412155	54.051142
00444		-0.335012	0.649222	0.368156	0.575099	-174.221479	-83.417272	53.961819
00445		-0.335128	0.649190	0.368121	0.575090	-174.127135	-83.423903	53.874761
00446		-0.335220	0.649173	0.368131	0.575048	-174.062450	-83.424752	53.819729
00447		-0.335279	0.649169	0.368053	0.575070	-173.981987	-83.431238	53.737177
00448		-0.335394	0.649094	0.368003	0.575119	-173.907676	-83.445755	53.668490
00449		-0.335479	0.649046	0.367948	0.575159	-173.841008	-83.456933	53.604320
00450		-0.335594	0.648981	0.367943	0.575168	-173.779827	-83.466364	53.553081
00451		-0.335692	0.648928	0.367908	0.575192	-173.711341	-83.476384	53.490237
00452		-0.335831	0.648815	0.367908	0.575240	-173.660491	-83.492865	53.451803
00453		-0.335972	0.648716	0.367891	0.575280	-173.590598	-83.508409	53.393015
00454		-0.336113	0.648612	0.367909	0.575303	-173.539416	-83.521768	53.356298
00455		-0.336210	0.648547	0.367948	0.575295	-173.511592	-83.527868	53.340987
00456		-0.336313	0.648478	0.367992	0.575284	-173.482140	-83.534146	53.325052
00457		-0.336430	0.648402	0.368010	0.575290	-173.433713	-83.543388	53.288942
00458		-0.336539	0.648337	0.368011	0.575299	-173.378087	-83.552385	53.243354
00459		-0.336643	0.648274	0.367971	0.575334	-173.308048	-83.564305	53.179025
00460		-0.336753	0.648176	0.367921	0.575413	-173.249583	-83.582639	53.125508
00461		-0.336878	0.648073	0.367854	0.575498	-173.173444	-83.602762	53.054174
00462		-0.337020	0.647964	0.367791	0.575578	-173.086712	-83.623455	52.974212
00463		-0.337170	0.647820	0.367739	0.575686	-173.018350	-83.648689	52.914126
00464		-0.337336	0.647667	0.367680	0.575798	-172.937367	-83.675654	52.842328
00465		-0.337521	0.647511	0.367635	0.575894	-172.847311	-83.701694	52.764559
00466		-0.337694	0.647379	0.367587	0.575972	-172.751564	-83.724341	52.679827
00467		-0.337859	0.647253	0.367524	0.576056	-172.651200	-83.747177	52.588348
00468		-0.338004	0.647119	0.367475	0.576153	-172.580187	-83.770566	52.525536
00469		-0.338154	0.647004	0.367428	0.576225	-172.493114	-83.790644	52.447466
00470		-0.338271	0.646930	0.367352	0.576287	-172.396505	-83.806881	52.354257
00471		-0.338368	0.646883	0.367296	0.576319	-172.310936	-83.817464	52.272109
00472		-0.338436	0.646863	0.367243	0.576335	-172.236353	-83.823883	52.198792
00473		-0.338501	0.646861	0.367168	0.576347	-172.143481	-83.829281	52.104830
00474		-0.338568	0.646844	0.367105	0.576367	-172.062975	-83.836045	52.024464
00475		-0.338650	0.646817	0.367027	0.576399	-171.967266	-83.845341	51.928825
00476		-0.338731	0.646792	0.366937	0.576436	-171.865698	-83.855155	51.826162
00477		-0.338828	0.646752	0.366833	0.576490	-171.752014	-83.868283	51.711385
00478		-0.338908	0.646709	0.366736	0.576553	-171.657634	-83.881592	51.615068
00479		-0.338987	0.646675	0.366629	0.576613	-171.553634	-83.894290	51.507973
00480		-0.339057	0.646629	0.366533	0.576684	-171.470824	-83.907979	51.422339
00481		-0.339130	0.646571	0.366425	0.576775	-171.384575	-83.924607	51.332308
00482		-0.339204	0.646500	0.366364	0.576849	-171.328384	-83.939575	51.276889
00483		-0.339258	0.646446	0.366324	0.576904	-171.291417	-83.950515	51.240852
00484		-0.339287	0.646427	0.366271	0.576942	-171.249888	-83.957249	51.196816
00485		-0.339297	0.646407	0.366205	0.577000	-171.219993	-83.965382	51.161461
00486		-0.339303	0.646378	0.366156	0.577060	-171.206722	-83.973750	51.143974
00487		-0.339335	0.646355	0.366078	0.577117	-171.152551	-83.982988	51.085140
00488		-0.339351	0.646326	0.366017	0.577178	-171.124140	-83.992085	51.052347
00489		-0.339357	0.646290	0.365960	0.577251	-171.111572	-84.002235	51.034618
00490		-0.339352	0.646256	0.365903	0.577329	-171.108191	-84.012178	51.025077
00491		-0.339372	0.646184	0.365869	0.577418	-171.115060	-84.025972	51.030354
00492		-0.339359	0.646136	0.365836	0.577501	-171.139463	-84.036419	51.050033
00493		-0.339374	0.646081	0.365806	0.577574	-171.143717	-84.047452	51.052567
00494		-0.339366	0.646050	0.365821	0.577603	-171.177091	-84.051330	51.086422
00495		-0.339353	0.646039	0.365849	0.577605	-171.210185	-84.051123	51.120961
00496		-0.339330	0.646027	0.365888	0.577607	-171.258433	-84.050355	51.170781
00497		-0.339292	0.646021	0.365945	0.577600	-171.325873	-84.047503	51.240010
00498		-0.339247	0.646015	0.365986	0.577608	-171.392540	-84.045969	51.306330
00499		-0.339229	0.645988	0.366022	0.577625	-171.443549	-84.047756	51.359082
00500		-0.339201	0.645952	0.366061	0.577657	-171.510797	-84.050929	51.427215
00501		-0.339145	0.645939	0.366105	0.577677	-171.593628	-84.050392	51.508923
00502		-0.339071	0.645931	0.366144	0.577704	-171.687370	-84.049639	51.599496
00503		-0.338996	0.645933	0.366173	0.577728	-171.771688	-84.048254	51.679490
00504		-0.339048	0.645872	0.366262	0.577709	-171.804352	-84.050291	51.725338
00505		-0.339107	0.645823	0.366319	0.577693	-171.806719	-84.052820	51.738443
00506		-0.339109	0.645804	0.366377	0.577676	-171.844635	-84.051244	51.782037
00507		-0.339078	0.645805	0.366401	0.577679	-171.885075	-84.049779	51.821855
00508		-0.339044	0.645776	0.366480	0.577681	-171.974500	-84.048666	51.915503
00509		-0.338909	0.645850	0.366448	0.577697	-172.039653	-84.041164	51.965248
00510		-0.338879	0.645876	0.366384	0.577726	-172.020731	-84.042436	51.937533
00511		-0.339001	0.645801	0.366350	0.577760	-171.935089	-84.055338	51.859721
00512		-0.339004	0.645843	0.366373	0.577698	-171.918417	-84.046954	51.845680
00513		-0.338970	0.645930	0.366440	0.577577	-171.928482	-84.028229	51.859492
00514		-0.338939	0.645990	0.366510	0.577484	-171.955946	-84.013676	51.891015
00515		-0.338906	0.646032	0.366574	0.577416	-171.991666	-84.002436	51.929999
00516		-0.338880	0.646011	0.366631	0.577418	-172.056157	-84.001640	51.997349
00517		-0.338841	0.646018	0.366639	0.577428	-172.092287	-84.000505	52.030692
00518		-0.338821	0.645993	0.366644	0.577465	-172.129384	-84.004304	52.066185
00519		-0.338789	0.645958	0.366606	0.577547	-172.162980	-84.013298	52.093027
00520		-0.338788	0.645924	0.366544	0.577625	-172.153925	-84.023632	52.077725
00521		-0.338798	0.645899	0.366479	0.577688	-172.128782	-84.032557	52.047203
00522		-0.338816	0.645877	0.366427	0.577735	-172.100356	-84.039760	52.015378
00523		-0.338869	0.645847	0.366394	0.577758	-172.052618	-84.046374	51.969354
00524		-0.338905	0.645808	0.366395	0.577781	-172.043992	-84.052121	51.963926
00525		-0.338957	0.645758	0.366401	0.577801	-172.028238	-84.058819	51.953496
00526		-0.338959	0.645728	0.366404	0.577832	-172.047217	-84.063401	51.972793
00527		-0.338997	0.645679	0.366381	0.577879	-172.030228	-84.072398	51.956931
00528		-0.339028	0.645636	0.366342	0.577934	-172.008805	-84.081989	51.934412
00529		-0.339051	0.645594	0.366289	0.578001	-171.986916	-84.092492	51.909377
00530		-0.339074	0.645567	0.366232	0.578054	-171.954000	-84.100856	51.873052
00531		-0.339114	0.645525	0.366182	0.578109	-171.917396	-84.110963	51.835237
00532		-0.339168	0.645483	0.366150	0.578144	-171.875788	-84.119372	51.795440
00533		-0.339196	0.645424	0.366037	0.578266	-171.830095	-84.137206	51.741231
00534		-0.339277	0.645300	0.365932	0.578423	-171.776861	-84.163943	51.684962
00535		-0.339378	0.645179	0.365861	0.578543	-171.719487	-84.187366	51.629777
00536		-0.339449	0.645099	0.365818	0.578618	-171.679016	-84.202432	51.591375
00537		-0.339503	0.645037	0.365790	0.578674	-171.651054	-84.213764	51.565567
00538		-0.339586	0.644951	0.365755	0.578742	-171.606790	-84.228844	51.525461
00539		-0.339643	0.644875	0.365740	0.578803	-171.591857	-84.241395	51.513954
00540		-0.339665	0.644839	0.365721	0.578843	-171.583487	-84.248275	51.505646
00541		-0.339681	0.644788	0.365711	0.578896	-171.594034	-84.256927	51.516604
00542		-0.339716	0.644717	0.365696	0.578964	-171.597852	-84.268948	51.521879
00543		-0.339765	0.644666	0.365672	0.579008	-171.570040	-84.278314	51.496161
00544		-0.339778	0.644622	0.365629	0.579075	-171.561980	-84.288290	51.485083
00545		-0.339801	0.644580	0.365576	0.579142	-171.538418	-84.298781	51.458390
00546		-0.339813	0.644551	0.365521	0.579202	-171.516823	-84.307531	51.432506
00547		-0.339812	0.644529	0.365458	0.579268	-171.498926	-84.316032	51.408281
00548		-0.339828	0.644481	0.365390	0.579355	-171.477692	-84.328690	51.381839
00549		-0.339848	0.644439	0.365316	0.579435	-171.445050	-84.340697	51.343884
00550		-0.339830	0.644422	0.365247	0.579509	-171.438040	-84.349036	51.328496
00551		-0.339840	0.644391	0.365184	0.579577	-171.413813	-84.358710	51.298977
00552		-0.339836	0.644359	0.365136	0.579645	-171.413107	-84.367501	51.293181
00553		-0.339832	0.644342	0.365098	0.579691	-171.407945	-84.373318	51.283885
00554		-0.339830	0.644328	0.365078	0.579719	-171.407590	-84.377053	51.281458
00555		-0.339807	0.644329	0.365070	0.579737	-171.426001	-84.377851	51.296908
00556		-0.339773	0.644351	0.365070	0.579733	-171.445315	-84.374959	51.313087
00557		-0.339755	0.644381	0.365062	0.579715	-171.439919	-84.370994	51.305336
00558		-0.339733	0.644413	0.365068	0.579688	-171.444700	-84.365738	51.308853
00559		-0.339709	0.644430	0.365058	0.579690	-171.451934	-84.364159	51.312912
00560		-0.339715	0.644426	0.365051	0.579695	-171.445083	-84.365159	51.305942
00561		-0.339718	0.644424	0.365025	0.579712	-171.429774	-84.367455	51.288385
00562		-0.339710	0.644419	0.365000	0.579738	-171.427515	-84.370386	51.282938
00563		-0.339708	0.644406	0.364981	0.579765	-171.427531	-84.373911	51.280946
00564		-0.339711	0.644383	0.364993	0.579781	-171.445910	-84.376563	51.300632
00565		-0.339707	0.644378	0.365010	0.579779	-171.461633	-84.376227	51.317563
00566		-0.339688	0.644380	0.365031	0.579775	-171.491016	-84.374579	51.347170
00567		-0.339651	0.644402	0.365057	0.579756	-171.527190	-84.369576	51.382523
00568		-0.339627	0.644414	0.365083	0.579740	-171.557115	-84.365965	51.412610
00569		-0.339619	0.644422	0.365113	0.579717	-171.575752	-84.362523	51.433459
00570		-0.339603	0.644442	0.365162	0.579674	-171.605210	-84.355815	51.466162
00571		-0.339590	0.644468	0.365205	0.579625	-171.623348	-84.348456	51.487427
00572		-0.339563	0.644504	0.365263	0.579564	-171.657460	-84.338619	51.524735
00573		-0.339506	0.644571	0.365316	0.579489	-171.698080	-84.324613	51.565348
00574		-0.339464	0.644625	0.365342	0.579438	-171.719411	-84.314688	51.585462
00575		-0.339433	0.644660	0.365371	0.579399	-171.742355	-84.307304	51.608417
00576		-0.339397	0.644681	0.365397	0.579381	-171.777733	-84.302505	51.642927
00577		-0.339360	0.644703	0.365423	0.579361	-171.813332	-84.297488	51.677707
00578		-0.339331	0.644704	0.365456	0.579356	-171.857906	-84.295070	51.722674
00579		-0.339342	0.644679	0.365494	0.579353	-171.883283	-84.295978	51.752631
00580		-0.339341	0.644647	0.365570	0.579342	-171.944187	-84.295236	51.820575
00581		-0.339366	0.644626	0.365637	0.579308	-171.967275	-84.293049	51.852374
00582		-0.339368	0.644617	0.365740	0.579252	-172.024181	-84.286451	51.919275
00583		-0.339332	0.644645	0.365821	0.579190	-172.082796	-84.276014	51.982492
00584		-0.339330	0.644651	0.365892	0.579141	-172.117472	-84.269721	52.023710
00585		-0.339372	0.644621	0.365953	0.579110	-172.126684	-84.269093	52.042596
00586		-0.339443	0.644563	0.366009	0.579098	-172.123734	-84.273005	52.051389
00587		-0.339533	0.644459	0.366086	0.579112	-172.141654	-84.282239	52.084723
00588		-0.339595	0.644399	0.366117	0.579122	-172.135741	-84.288457	52.087397
00589		-0.339619	0.644339	0.366159	0.579149	-172.174066	-84.294460	52.131706
00590		-0.339612	0.644324	0.366192	0.579149	-172.206818	-84.294375	52.166920
00591		-0.339702	0.644252	0.366264	0.579131	-172.202864	-84.298879	52.177976
00592		-0.339764	0.644192	0.366296	0.579141	-172.197027	-84.305099	52.180730
00593		-0.339797	0.644165	0.366378	0.579100	-172.224577	-84.302516	52.219171
00594		-0.339818	0.644132	0.366452	0.579077	-172.262616	-84.301731	52.266113
00595		-0.339864	0.644097	0.366591	0.579001	-172.311143	-84.295721	52.332096
00596		-0.339805	0.644152	0.366670	0.578924	-172.372942	-84.281542	52.396265
00597		-0.339886	0.644154	0.366727	0.578839	-172.322075	-84.275779	52.358436
00598		-0.340026	0.644103	0.366841	0.578742	-172.276354	-84.273149	52.336524
00599		-0.340066	0.644183	0.366998	0.578529	-172.264569	-84.247516	52.344032
00600		-0.340098	0.644269	0.367222	0.578273	-172.290529	-84.215968	52.394845
00601		-0.340131	0.644331	0.367460	0.578033	-172.337326	-84.186937	52.467975
00602		-0.340165	0.644357	0.367693	0.577836	-172.402943	-84.164043	52.559250
00603		-0.340178	0.644375	0.367905	0.577673	-172.482468	-84.144353	52.660505
00604		-0.340216	0.644393	0.368123	0.577491	-172.540812	-84.123773	52.743450
00605		-0.340245	0.644411	0.368317	0.577330	-172.596521	-84.105239	52.820678
00606		-0.340296	0.644420	0.368453	0.577204	-172.607445	-84.092386	52.849444
00607		-0.340392	0.644433	0.368547	0.577072	-172.553270	-84.081618	52.813472
00608		-0.340495	0.644447	0.368644	0.576933	-172.493577	-84.070331	52.772903
00609		-0.340607	0.644457	0.368733	0.576800	-172.423334	-84.060343	52.721764
00610		-0.340704	0.644480	0.368824	0.576659	-172.362071	-84.048248	52.678514
00611		-0.340784	0.644516	0.368886	0.576532	-172.293506	-84.036591	52.623659
00612		-0.340827	0.644548	0.368957	0.576424	-172.266528	-84.025201	52.607679
00613		-0.340854	0.644577	0.369047	0.576318	-172.266208	-84.013157	52.618734
00614		-0.340889	0.644609	0.369150	0.576196	-172.262049	-83.999463	52.627941
00615		-0.340909	0.644639	0.369226	0.576103	-172.261124	-83.988567	52.636286
00616		-0.340942	0.644655	0.369310	0.576010	-172.259835	-83.978767	52.646384
00617		-0.341017	0.644637	0.369412	0.575921	-172.250445	-83.972649	52.653762
00618		-0.341065	0.644652	0.369526	0.575803	-172.250040	-83.960557	52.668970
00619		-0.341078	0.644678	0.369542	0.575756	-172.229542	-83.955069	52.651290
00620		-0.341158	0.644626	0.369539	0.575768	-172.185391	-83.962420	52.614202
00621		-0.341214	0.644618	0.369580	0.575718	-172.158059	-83.959721	52.596042
00622		-0.341240	0.644666	0.369609	0.575630	-172.117746	-83.949420	52.561247
00623		-0.341255	0.644726	0.369650	0.575528	-172.085922	-83.936484	52.535050
00624		-0.341287	0.644763	0.369675	0.575451	-172.045591	-83.928138	52.500295
00625		-0.341340	0.644785	0.369702	0.575378	-171.995246	-83.921866	52.457665
00626		-0.341356	0.644832	0.369742	0.575289	-171.970049	-83.910790	52.438161
00627		-0.341378	0.644879	0.369789	0.575194	-171.943958	-83.899402	52.418832
00628		-0.341398	0.644907	0.369863	0.575103	-171.942820	-83.888793	52.426931
00629		-0.341434	0.644920	0.369925	0.575028	-171.931234	-83.881383	52.424602
00630		-0.341484	0.644932	0.369967	0.574957	-171.896907	-83.875432	52.399212
00631		-0.341535	0.644929	0.370013	0.574901	-171.873821	-83.871561	52.385364
00632		-0.341578	0.644952	0.370039	0.574832	-171.832147	-83.865175	52.350377
00633		-0.341617	0.644986	0.370035	0.574774	-171.774770	-83.859580	52.296353
00634		-0.341659	0.645009	0.370004	0.574744	-171.708299	-83.857773	52.231022
00635		-0.341702	0.645023	0.369951	0.574736	-171.634459	-83.859136	52.156230
00636		-0.341751	0.645027	0.369881	0.574747	-171.553772	-83.863116	52.073457
00637		-0.341783	0.645050	0.369827	0.574737	-171.485481	-83.863261	52.003164
00638		-0.341812	0.645060	0.369780	0.574739	-171.430399	-83.864925	51.946268
00639		-0.341874	0.645086	0.369738	0.574700	-171.337982	-83.863097	51.855755
00640		-0.341912	0.645093	0.369715	0.574684	-171.289102	-83.863240	51.808309
00641		-0.341966	0.645099	0.369699	0.574656	-171.227458	-83.862700	51.750192
00642		-0.342017	0.645097	0.369697	0.574629	-171.180925	-83.862495	51.708326
00643		-0.342066	0.645085	0.369678	0.574625	-171.134375	-83.865067	51.664446
00644		-0.342110	0.645067	0.369664	0.574628	-171.097343	-83.868378	51.630176
00645		-0.342146	0.645062	0.369635	0.574631	-171.053799	-83.870911	51.587172
00646		-0.342155	0.645051	0.369613	0.574652	-171.041341	-83.874226	51.573519
00647		-0.342203	0.645026	0.369586	0.574669	-170.998917	-83.879546	51.532884
00648		-0.342239	0.645005	0.369594	0.574666	-170.982091	-83.881750	51.520125
00649		-0.342292	0.644974	0.369609	0.574660	-170.958780	-83.884822	51.503039
00650		-0.342357	0.644933	0.369622	0.574659	-170.929004	-83.889387	51.480449
00651		-0.342438	0.644874	0.369632	0.574670	-170.893906	-83.896756	51.453695
00652		-0.342517	0.644831	0.369617	0.574681	-170.839586	-83.903576	51.405241
00653		-0.342574	0.644782	0.369572	0.574730	-170.793230	-83.913933	51.359697
00654		-0.342650	0.644727	0.369530	0.574775	-170.734920	-83.924995	51.304129
00655		-0.342704	0.644661	0.369457	0.574863	-170.687795	-83.940385	51.254764
00656		-0.342766	0.644585	0.369388	0.574956	-170.641073	-83.956904	51.206836
00657		-0.342820	0.644514	0.369316	0.575050	-170.596902	-83.973085	51.160506
00658		-0.342885	0.644412	0.369225	0.575183	-170.550824	-83.995450	51.111291
00659		-0.342954	0.644301	0.369132	0.575327	-170.504785	-84.019433	51.062217
00660		-0.343005	0.644185	0.369070	0.575465	-170.493356	-84.041943	51.049185
00661		-0.343073	0.644081	0.369012	0.575579	-170.461795	-84.062099	51.017863
00662		-0.343114	0.644005	0.368966	0.575668	-170.443901	-84.077149	50.999112
00663		-0.343163	0.643899	0.368895	0.575803	-170.423786	-84.098884	50.976258
00664		-0.343215	0.643783	0.368833	0.575941	-170.411859	-84.121393	50.962738
00665		-0.343282	0.643671	0.368766	0.576070	-170.380618	-84.143502	50.930818
00666		-0.343356	0.643549	0.368703	0.576202	-170.349515	-84.166754	50.900058
00667		-0.343418	0.643426	0.368644	0.576341	-170.332422	-84.190092	50.882509
00668		-0.343472	0.643304	0.368603	0.576470	-170.332073	-84.211897	50.882847
00669		-0.343529	0.643176	0.368550	0.576614	-170.325926	-84.235626	50.876269
00670		-0.343603	0.643014	0.368482	0.576793	-170.316029	-84.265617	50.866161
00671		-0.343705	0.642849	0.368419	0.576956	-170.282623	-84.295233	50.835541
00672		-0.343810	0.642670	0.368367	0.577128	-170.260980	-84.326423	50.817883
00673		-0.343925	0.642467	0.368318	0.577316	-170.244908	-84.360824	50.807080
00674		-0.344008	0.642298	0.368266	0.577488	-170.238886	-84.390475	50.803052
00675		-0.344083	0.642143	0.368173	0.577674	-170.208571	-84.421184	50.770257
00676		-0.344238	0.641927	0.368105	0.577866	-170.149875	-84.458557	50.718575
00677		-0.344427	0.641674	0.368004	0.578099	-170.059266	-84.503698	50.634970
00678		-0.344613	0.641419	0.367906	0.578333	-169.974470	-84.548805	50.557210
00679		-0.344688	0.641281	0.367867	0.578465	-169.960991	-84.572580	50.546544
00680		-0.344783	0.641088	0.367818	0.578655	-169.957746	-84.605801	50.546585
00681		-0.344882	0.640894	0.367729	0.578867	-169.926598	-84.642032	50.515380
00682		-0.344920	0.640767	0.367557	0.579093	-169.867538	-84.674756	50.442916
00683		-0.345096	0.640581	0.367447	0.579264	-169.737122	-84.709884	50.317757
00684		-0.345213	0.640450	0.367452	0.579337	-169.700866	-84.728575	50.292462
00685		-0.345295	0.640397	0.367519	0.579304	-169.687021	-84.730588	50.292480
00686		-0.345365	0.640323	0.367613	0.579284	-169.715314	-84.733938	50.336150
00687		-0.345427	0.640231	0.367697	0.579296	-169.758880	-84.741268	50.393276
00688		-0.345500	0.640094	0.367755	0.579367	-169.804260	-84.757574	50.450444
00689		-0.345581	0.639952	0.367804	0.579444	-169.838007	-84.775059	50.495992
00690		-0.345665	0.639807	0.367862	0.579518	-169.877250	-84.792526	50.548069
00691		-0.345776	0.639630	0.367872	0.579640	-169.879221	-84.818076	50.560676
00692		-0.345912	0.639429	0.367844	0.579799	-169.847882	-84.850114	50.538745
00693		-0.346065	0.639203	0.367815	0.579975	-169.813754	-84.885727	50.515259
00694		-0.346245	0.638968	0.367767	0.580157	-169.743813	-84.923923	50.456714
00695		-0.346445	0.638714	0.367711	0.580352	-169.657524	-84.965248	50.382924
00696		-0.346646	0.638446	0.367644	0.580569	-169.572661	-85.009659	50.309590
00697		-0.346840	0.638195	0.367583	0.580768	-169.485582	-85.050940	50.233949
00698		-0.346988	0.637990	0.367555	0.580923	-169.439361	-85.083328	50.198153
00699		-0.347064	0.637856	0.367516	0.581049	-169.418890	-85.106318	50.180569
00700		-0.347122	0.637705	0.367500	0.581191	-169.445488	-85.130663	50.210537
00701		-0.347220	0.637551	0.367497	0.581303	-169.437456	-85.153784	50.210829
00702		-0.347339	0.637348	0.367513	0.581445	-169.450156	-85.182921	50.235525
00703		-0.347403	0.637198	0.367467	0.581599	-169.449471	-85.209107	50.235922
00704		-0.347461	0.637031	0.367351	0.581822	-169.422597	-85.243663	50.202670
00705		-0.347615	0.636793	0.367241	0.582059	-169.335428	-85.287201	50.118627
00706		-0.347734	0.636603	0.367162	0.582246	-169.275187	-85.321378	50.061327
00707		-0.347821	0.636460	0.367123	0.582374	-169.245310	-85.345523	50.035403
00708		-0.347864	0.636345	0.367083	0.582500	-169.247733	-85.366178	50.037617
00709		-0.347948	0.636194	0.367061	0.582628	-169.239047	-85.390442	50.034169
00710		-0.348040	0.636044	0.367041	0.582750	-169.222061	-85.414261	50.023352
00711		-0.348087	0.635930	0.366997	0.582874	-169.216687	-85.434915	50.017762
00712		-0.348152	0.635795	0.366947	0.583014	-169.199701	-85.459039	50.001613
00713		-0.348229	0.635648	0.366873	0.583174	-169.159464	-85.486615	49.961141
00714		-0.348315	0.635496	0.366803	0.583333	-169.114263	-85.514545	49.916687
00715		-0.348407	0.635329	0.366751	0.583493	-169.085629	-85.543406	49.891205
00716		-0.348474	0.635199	0.366721	0.583613	-169.075187	-85.565241	49.883728
00717		-0.348513	0.635084	0.366709	0.583722	-169.101872	-85.583716	49.912564
00718		-0.348584	0.634955	0.366708	0.583820	-169.107437	-85.602926	49.924344
00719		-0.348637	0.634848	0.366714	0.583902	-169.125108	-85.618645	49.947114
00720		-0.348687	0.634736	0.366734	0.583980	-169.159323	-85.634048	49.987643
00721		-0.348752	0.634639	0.366748	0.584039	-169.159961	-85.647389	49.995333
00722		-0.348791	0.634546	0.366766	0.584105	-169.193773	-85.660018	50.034261
00723		-0.348820	0.634478	0.366769	0.584160	-169.210829	-85.670198	50.054075
00724		-0.348836	0.634402	0.366788	0.584221	-169.261336	-85.680498	50.107605
00725		-0.348865	0.634334	0.366791	0.584276	-169.278465	-85.690676	50.127483
00726		-0.348915	0.634251	0.366817	0.584319	-169.295105	-85.700905	50.151115
00727		-0.348985	0.634165	0.366822	0.584368	-169.276306	-85.712969	50.139087
00728		-0.349041	0.634072	0.366844	0.584422	-169.291536	-85.725158	50.161384
00729		-0.349113	0.633985	0.366870	0.584457	-169.285422	-85.735733	50.164250
00730		-0.349168	0.633913	0.366889	0.584490	-169.282450	-85.744704	50.168038
00731		-0.349220	0.633863	0.366896	0.584509	-169.259758	-85.751218	50.150758
00732		-0.349255	0.633844	0.366893	0.584510	-169.226516	-85.753725	50.120502
00733		-0.349268	0.633859	0.366875	0.584498	-169.183913	-85.752611	50.077458
00734		-0.349268	0.633869	0.366862	0.584495	-169.167012	-85.751966	50.059264
00735		-0.349257	0.633892	0.366834	0.584493	-169.141981	-85.750467	50.030728
00736		-0.349246	0.633908	0.366832	0.584484	-169.141972	-85.748319	50.029512
00737		-0.349240	0.633939	0.366834	0.584453	-169.129077	-85.743404	50.016338
00738		-0.349214	0.633985	0.366855	0.584406	-169.142380	-85.735041	50.029347
00739		-0.349183	0.634034	0.366893	0.584347	-169.173131	-85.724812	50.061021
00740		-0.349154	0.634099	0.366927	0.584273	-169.187253	-85.712540	50.075757
00741		-0.349118	0.634184	0.366975	0.584172	-169.205065	-85.695969	50.095137
00742		-0.349064	0.634293	0.367005	0.584067	-169.212806	-85.677347	50.101013
00743		-0.349035	0.634419	0.367026	0.583934	-169.169830	-85.656197	50.057810
00744		-0.348991	0.634569	0.367048	0.583783	-169.129529	-85.631494	50.016005
00745		-0.348929	0.634730	0.367032	0.583656	-169.076375	-85.608198	49.955960
00746		-0.348887	0.634867	0.367019	0.583540	-169.019542	-85.588074	49.894453
00747		-0.348855	0.634991	0.367010	0.583430	-168.962341	-85.569539	49.833781
00748		-0.348808	0.635158	0.367009	0.583277	-168.899075	-85.543887	49.766603
00749		-0.348782	0.635288	0.367050	0.583125	-168.866295	-85.520435	49.735728
00750		-0.348745	0.635447	0.367132	0.582923	-168.856002	-85.489671	49.730376
00751		-0.348732	0.635614	0.367196	0.582707	-168.798062	-85.458298	49.678056
00752		-0.348702	0.635775	0.367282	0.582496	-168.782047	-85.426737	49.667972
00753		-0.348689	0.635934	0.367337	0.582295	-168.725457	-85.397320	49.616046
00754		-0.348694	0.636061	0.367387	0.582121	-168.665667	-85.373000	49.562077
00755		-0.348697	0.636166	0.367434	0.581975	-168.621997	-85.352662	49.523565
00756		-0.348679	0.636292	0.367477	0.581821	-168.587204	-85.329585	49.491675
00757		-0.348642	0.636399	0.367523	0.581698	-168.589456	-85.309790	49.495225
00758		-0.348588	0.636518	0.367550	0.581582	-168.590923	-85.289562	49.494720
00759		-0.348643	0.636562	0.367595	0.581474	-168.527971	-85.278212	49.441345
00760		-0.348740	0.636560	0.367680	0.581364	-168.474072	-85.270213	49.404751
00761		-0.348740	0.636640	0.367746	0.581234	-168.465166	-85.252424	49.402544
00762		-0.348767	0.636696	0.367867	0.581080	-168.477955	-85.233726	49.429636
00763		-0.348801	0.636736	0.367972	0.580950	-168.482652	-85.218869	49.447753
00764		-0.348742	0.636875	0.367966	0.580835	-168.453881	-85.198020	49.413465
00765		-0.348751	0.636950	0.367918	0.580778	-168.362771	-85.189408	49.318955
00766		-0.348819	0.637000	0.367911	0.580687	-168.247545	-85.180447	49.209639
00767		-0.348851	0.637124	0.368013	0.580467	-168.198283	-85.152306	49.173699
00768		-0.348856	0.637274	0.368199	0.580181	-168.218974	-85.114097	49.213321
00769		-0.348921	0.637379	0.368418	0.579888	-168.222824	-85.079451	49.244709
00770		-0.348972	0.637437	0.368649	0.579647	-168.278425	-85.051819	49.327602
00771		-0.348986	0.637505	0.368828	0.579449	-168.335426	-85.027122	49.403464
00772		-0.348941	0.637563	0.369009	0.579298	-168.465021	-85.005143	49.546367
00773		-0.348907	0.637636	0.369163	0.579140	-168.554152	-84.982467	49.647381
00774		-0.348886	0.637689	0.369270	0.579026	-168.609932	-84.966260	49.711650
00775		-0.348857	0.637738	0.369329	0.578952	-168.647607	-84.954532	49.752506
00776		-0.348856	0.637774	0.369358	0.578895	-168.644758	-84.946549	49.752484
00777		-0.348903	0.637787	0.369383	0.578835	-168.599548	-84.941527	49.714164
00778		-0.348972	0.637769	0.369422	0.578789	-168.560971	-84.940164	49.685819
00779		-0.349053	0.637737	0.369486	0.578734	-168.532524	-84.938876	49.671050
00780		-0.349085	0.637722	0.369555	0.578687	-168.549992	-84.935448	49.698200
00781		-0.349109	0.637733	0.369619	0.578620	-168.557076	-84.928357	49.713685
00782		-0.349109	0.637743	0.369709	0.578551	-168.606261	-84.919976	49.771623
00783		-0.349107	0.637752	0.369792	0.578490	-168.654388	-84.912330	49.827537
00784		-0.349107	0.637742	0.369921	0.578419	-168.740873	-84.904200	49.926422
00785		-0.349045	0.637809	0.370028	0.578314	-168.832106	-84.886482	50.022342
00786		-0.348955	0.637876	0.370038	0.578288	-168.892227	-84.876665	50.075167
00787		-0.348965	0.637846	0.369995	0.578342	-168.874647	-84.884500	50.054335
00788		-0.348949	0.637828	0.369947	0.578402	-168.873907	-84.891283	50.047360
00789		-0.348971	0.637795	0.369905	0.578453	-168.845334	-84.899524	50.016645
00790		-0.349008	0.637762	0.369914	0.578460	-168.832098	-84.903297	50.007673
00791		-0.349026	0.637759	0.369940	0.578437	-168.829906	-84.901572	50.009713
00792		-0.349052	0.637733	0.369996	0.578413	-168.853217	-84.900877	50.040736
00793		-0.349050	0.637715	0.370084	0.578378	-168.920276	-84.897210	50.115964
00794		-0.349042	0.637698	0.370189	0.578335	-169.005319	-84.892121	50.210301
00795		-0.349037	0.637676	0.370293	0.578295	-169.088420	-84.887733	50.302823
00796		-0.349029	0.637637	0.370402	0.578273	-169.188456	-84.885832	50.412448
00797		-0.349024	0.637616	0.370506	0.578233	-169.271097	-84.881425	50.504483
00798		-0.349034	0.637602	0.370578	0.578197	-169.313105	-84.878046	50.554315
00799		-0.349026	0.637602	0.370621	0.578174	-169.347433	-84.874871	50.592039
00800		-0.349025	0.637592	0.370647	0.578169	-169.371104	-84.874453	50.618067
00801		-0.349036	0.637589	0.370658	0.578158	-169.367382	-84.873868	50.616508
00802		-0.349029	0.637603	0.370640	0.578159	-169.355496	-84.873220	50.602274
00803		-0.349054	0.637592	0.370625	0.578165	-169.326313	-84.875634	50.574010
00804		-0.349077	0.637579	0.370613	0.578173	-169.302618	-84.878133	50.551184
00805		-0.349069	0.637580	0.370610	0.578178	-169.308460	-84.878308	50.556066
00806		-0.349072	0.637563	0.370622	0.578188	-169.324041	-84.880193	50.572926
00807		-0.349075	0.637556	0.370656	0.578172	-169.345681	-84.878550	50.598124
00808		-0.349067	0.637550	0.370677	0.578170	-169.371254	-84.878121	50.625000
00809		-0.349065	0.637538	0.370717	0.578158	-169.405183	-84.876906	50.662540
00810		-0.349069	0.637534	0.370737	0.578148	-169.416140	-84.876040	50.675699
00811		-0.349079	0.637529	0.370738	0.578147	-169.408672	-84.876590	50.669220
00812		-0.349093	0.637522	0.370756	0.578135	-169.408897	-84.876091	50.672617
00813		-0.349066	0.637534	0.370775	0.578126	-169.442349	-84.873226	50.705298
00814		-0.349044	0.637566	0.370782	0.578099	-169.448410	-84.867962	50.710113
00815		-0.349018	0.637576	0.370764	0.578115	-169.459832	-84.868095	50.717419
00816		-0.349021	0.637568	0.370738	0.578139	-169.445772	-84.871366	50.701135
00817		-0.349032	0.637551	0.370705	0.578172	-169.424720	-84.876468	50.677782
00818		-0.349054	0.637520	0.370685	0.578206	-169.409607	-84.882522	50.662691
00819		-0.349075	0.637497	0.370641	0.578246	-169.374886	-84.889155	50.625678
00820		-0.349084	0.637467	0.370613	0.578292	-169.367336	-84.895986	50.616112
00821		-0.349099	0.637438	0.370602	0.578322	-169.364198	-84.901256	50.613292
00822		-0.349087	0.637432	0.370583	0.578348	-169.369658	-84.903803	50.615641
00823		-0.349074	0.637455	0.370583	0.578331	-169.369195	-84.900421	50.614115
00824		-0.349036	0.637485	0.370597	0.578312	-169.398884	-84.895237	50.641743
00825		-0.348996	0.637533	0.370612	0.578274	-169.420406	-84.887144	50.660984
00826		-0.348945	0.637591	0.370613	0.578240	-169.438226	-84.878729	50.674341
00827		-0.348908	0.637642	0.370611	0.578207	-169.443335	-84.871377	50.675986
00828		-0.348888	0.637682	0.370626	0.578166	-169.448593	-84.864166	50.680993
00829		-0.348861	0.637742	0.370658	0.578095	-169.457490	-84.852582	50.690646
00830		-0.348842	0.637824	0.370687	0.577997	-169.441846	-84.837472	50.676378
00831		-0.348772	0.637939	0.370737	0.577881	-169.472124	-84.816538	50.705233
00832		-0.348730	0.638033	0.370767	0.577783	-169.473867	-84.799891	50.706341
00833		-0.348694	0.638117	0.370780	0.577704	-169.465954	-84.786207	50.696614
00834		-0.348662	0.638192	0.370791	0.577633	-169.458790	-84.773822	50.687798
00835		-0.348635	0.638246	0.370787	0.577592	-169.449649	-84.765989	50.675948
00836		-0.348609	0.638298	0.370760	0.577567	-169.427652	-84.760156	50.649142
00837		-0.348541	0.638383	0.370740	0.577527	-169.433733	-84.749196	50.647322
00838		-0.348443	0.638520	0.370688	0.577468	-169.419610	-84.733030	50.619491
00839		-0.348363	0.638634	0.370610	0.577441	-169.386786	-84.722185	50.571993
00840		-0.348415	0.638651	0.370569	0.577417	-169.296556	-84.721660	50.482828
00841		-0.348473	0.638628	0.370505	0.577449	-169.212259	-84.729265	50.397775
00842		-0.348480	0.638643	0.370506	0.577428	-169.196381	-84.726690	50.382657
00843		-0.348408	0.638681	0.370491	0.577438	-169.239131	-84.722952	50.417291
00844		-0.348363	0.638701	0.370492	0.577443	-169.274327	-84.720511	50.448451
00845		-0.348262	0.638782	0.370385	0.577482	-169.267400	-84.717510	50.421976
00846		-0.348295	0.638770	0.370278	0.577544	-169.177631	-84.727018	50.325040
00847		-0.348346	0.638740	0.370249	0.577566	-169.124681	-84.733235	50.273965
00848		-0.348338	0.638804	0.370316	0.577457	-169.132517	-84.717913	50.287737
00849		-0.348327	0.638890	0.370430	0.577295	-169.157145	-84.695613	50.322753
00850		-0.348314	0.638969	0.370547	0.577141	-169.190145	-84.674208	50.366068
00851		-0.348294	0.639018	0.370631	0.577044	-169.229194	-84.660132	50.411622
00852		-0.348256	0.639050	0.370681	0.577000	-169.278829	-84.651970	50.462569
00853		-0.348202	0.639099	0.370686	0.576975	-169.306732	-84.644676	50.486133
00854		-0.348148	0.639137	0.370706	0.576952	-169.350197	-84.637972	50.526588
00855		-0.348091	0.639200	0.370680	0.576933	-169.355023	-84.630914	50.523734
00856		-0.348053	0.639258	0.370643	0.576915	-169.337414	-84.625053	50.499209
00857		-0.348036	0.639298	0.370620	0.576896	-169.316662	-84.620715	50.474805
00858		-0.348047	0.639319	0.370614	0.576871	-169.288972	-84.617695	50.447720
00859		-0.348047	0.639329	0.370626	0.576852	-169.289080	-84.615127	50.448966
00860		-0.348038	0.639336	0.370635	0.576843	-169.299494	-84.613439	50.459400
00861		-0.348020	0.639337	0.370644	0.576847	-169.322671	-84.612890	50.481819
00862		-0.347966	0.639363	0.370656	0.576844	-169.370307	-84.608933	50.525520
00863		-0.347917	0.639421	0.370655	0.576809	-169.383103	-84.600411	50.533969
00864		-0.347856	0.639477	0.370658	0.576783	-169.414052	-84.592432	50.559570
00865		-0.347848	0.639486	0.370664	0.576773	-169.419677	-84.590621	50.565166
00866		-0.347799	0.639546	0.370675	0.576730	-169.439565	-84.581062	50.581678
00867		-0.347727	0.639625	0.370581	0.576746	-169.410563	-84.576875	50.537177
00868		-0.347766	0.639584	0.370520	0.576807	-169.360734	-84.587439	50.484944
00869		-0.347777	0.639596	0.370492	0.576804	-169.326290	-84.587380	50.448948
00870		-0.347780	0.639624	0.370507	0.576762	-169.314776	-84.581706	50.439209
00871		-0.347749	0.639682	0.370509	0.576715	-169.311762	-84.572752	50.433717
00872		-0.347763	0.639691	0.370525	0.576686	-169.301043	-84.569851	50.425957
00873		-0.347805	0.639675	0.370551	0.576662	-169.282671	-84.569659	50.413944
00874		-0.347805	0.639692	0.370593	0.576616	-169.296266	-84.563749	50.431755
00875		-0.347830	0.639704	0.370631	0.576564	-169.284613	-84.558445	50.426162
00876		-0.347873	0.639678	0.370691	0.576529	-169.290625	-84.557314	50.441854
00877		-0.347938	0.639647	0.370726	0.576500	-169.262428	-84.558288	50.423083
00878		-0.347988	0.639622	0.370753	0.576481	-169.242352	-84.559350	50.410306
00879		-0.348038	0.639594	0.370796	0.576454	-169.232419	-84.559632	50.409026
00880		-0.348067	0.639583	0.370834	0.576425	-169.231899	-84.558017	50.414865
00881		-0.348082	0.639594	0.370847	0.576395	-169.216494	-84.554962	50.402230
00882		-0.348084	0.639603	0.370854	0.576379	-169.213061	-84.552838	50.399717
00883		-0.348080	0.639615	0.370844	0.576374	-169.203801	-84.551727	50.389207
00884		-0.348091	0.639612	0.370832	0.576379	-169.188052	-84.553057	50.373279
00885		-0.348131	0.639583	0.370849	0.576376	-169.173846	-84.555586	50.364338
00886		-0.348167	0.639562	0.370857	0.576373	-169.154462	-84.557766	50.349072
00887		-0.348221	0.639513	0.370896	0.576369	-169.150672	-84.561564	50.353920
00888		-0.348269	0.639469	0.370942	0.576360	-169.156299	-84.564339	50.368291
00889		-0.348305	0.639427	0.370977	0.576362	-169.164289	-84.567764	50.382859
00890		-0.348337	0.639394	0.370992	0.576369	-169.160470	-84.571196	50.383388
00891		-0.348371	0.639358	0.371006	0.576380	-169.155242	-84.575343	50.382635
00892		-0.348408	0.639331	0.371015	0.576382	-169.139418	-84.578326	50.371002
00893		-0.348446	0.639300	0.371022	0.576388	-169.122561	-84.581983	50.358349
00894		-0.348492	0.639279	0.371019	0.576386	-169.086314	-84.584867	50.326052
00895		-0.348542	0.639251	0.371023	0.576384	-169.055021	-84.588081	50.299754
00896		-0.348587	0.639220	0.371058	0.576369	-169.046820	-84.589592	50.299016
00897		-0.348634	0.639181	0.371089	0.576363	-169.040716	-84.592561	50.300258
00898		-0.348686	0.639136	0.371130	0.576355	-169.037947	-84.595689	50.306153
00899		-0.348709	0.639107	0.371191	0.576335	-169.067102	-84.595327	50.343205
00900		-0.348730	0.639076	0.371254	0.576316	-169.100880	-84.595076	50.384878
00901		-0.348752	0.639073	0.371312	0.576268	-169.112704	-84.590691	50.404433
00902		-0.348761	0.639067	0.371373	0.576231	-169.142067	-84.586862	50.440436
00903		-0.348775	0.639066	0.371414	0.576197	-169.151948	-84.583572	50.455601
00904		-0.348797	0.639052	0.371448	0.576176	-169.156871	-84.582749	50.465906
00905		-0.348812	0.639050	0.371491	0.576142	-169.167165	-84.579485	50.481726
00906		-0.348807	0.639059	0.371530	0.576110	-169.189850	-84.575167	50.507722
00907		-0.348797	0.639067	0.371563	0.576086	-169.213842	-84.571481	50.533958
00908		-0.348823	0.639062	0.371580	0.576065	-169.200212	-84.570551	50.524411
00909		-0.348841	0.639046	0.371617	0.576048	-169.212247	-84.569987	50.541604
00910		-0.348870	0.639042	0.371664	0.576004	-169.210924	-84.566428	50.547652
00911		-0.348856	0.639050	0.371704	0.575979	-169.243147	-84.562413	50.582375
00912		-0.348866	0.639048	0.371727	0.575960	-169.247997	-84.560761	50.590422
00913		-0.348877	0.639034	0.371741	0.575960	-169.252783	-84.561735	50.597504
00914		-0.348911	0.638997	0.371731	0.575986	-169.234978	-84.567813	50.581821
00915		-0.348936	0.638954	0.371722	0.576025	-169.230772	-84.574966	50.578872
00916		-0.348935	0.638924	0.371705	0.576070	-169.240539	-84.581083	50.586773
00917		-0.348878	0.638931	0.371678	0.576114	-169.279923	-84.583156	50.618133
00918		-0.348804	0.638962	0.371629	0.576156	-169.309164	-84.583281	50.635819
00919		-0.348817	0.638943	0.371618	0.576176	-169.300469	-84.586882	50.627218
00920		-0.348868	0.638892	0.371603	0.576211	-169.271405	-84.595288	50.601305
00921		-0.348894	0.638849	0.371613	0.576236	-169.276597	-84.600917	50.609740
00922		-0.348818	0.638889	0.371635	0.576224	-169.343628	-84.594263	50.671896
00923		-0.348830	0.638840	0.371665	0.576252	-169.378060	-84.599650	50.710116
00924		-0.348760	0.638838	0.371641	0.576312	-169.438988	-84.603083	50.762133
00925		-0.348705	0.638844	0.371551	0.576396	-169.439727	-84.609969	50.748942
00926		-0.348757	0.638770	0.371503	0.576477	-169.404841	-84.624575	50.714118
00927		-0.348816	0.638768	0.371539	0.576422	-169.366734	-84.621154	50.685003
00928		-0.348826	0.638819	0.371658	0.576283	-169.392059	-84.603682	50.722925
00929		-0.348856	0.638850	0.371836	0.576115	-169.442264	-84.584331	50.793348
00930		-0.348881	0.638857	0.372026	0.575968	-169.519070	-84.567994	50.890967
00931		-0.348890	0.638851	0.372195	0.575861	-169.608874	-84.555838	50.997790
00932		-0.348881	0.638839	0.372382	0.575759	-169.730648	-84.543484	51.136752
00933		-0.348832	0.638859	0.372516	0.575680	-169.842055	-84.530747	51.256515
00934		-0.348802	0.638877	0.372629	0.575605	-169.924052	-84.519622	51.346649
00935		-0.348794	0.638879	0.372682	0.575572	-169.960133	-84.515186	51.387176
00936		-0.348833	0.638886	0.372717	0.575519	-169.934395	-84.510767	51.368507
00937		-0.348893	0.638893	0.372753	0.575452	-169.889612	-84.505834	51.332979
00938		-0.348970	0.638878	0.372807	0.575387	-169.850497	-84.502648	51.306213
00939		-0.349063	0.638842	0.372891	0.575316	-169.823837	-84.500235	51.296325
00940		-0.349145	0.638810	0.372988	0.575239	-169.814044	-84.496445	51.303538
00941		-0.349216	0.638762	0.373085	0.575185	-169.824678	-84.495271	51.330121
00942		-0.349243	0.638737	0.373198	0.575124	-169.874784	-84.490028	51.393592
00943		-0.349304	0.638722	0.373339	0.575012	-169.899675	-84.480370	51.437840
00944		-0.349343	0.638717	0.373540	0.574863	-169.973251	-84.464789	51.534468
00945		-0.349379	0.638756	0.373803	0.574627	-170.054922	-84.437420	51.645176
00946		-0.349312	0.638893	0.373994	0.574391	-170.137933	-84.401653	51.741022
00947		-0.349305	0.638999	0.374145	0.574179	-170.158945	-84.373052	51.776430
00948		-0.349321	0.639062	0.374348	0.573967	-170.211538	-84.346773	51.850463
00949		-0.349346	0.639190	0.374611	0.573637	-170.243945	-84.305185	51.911376
00950		-0.349321	0.639346	0.374856	0.573318	-170.298441	-84.261277	51.987929
00951		-0.349309	0.639500	0.375062	0.573019	-170.320157	-84.220614	52.029233
00952		-0.349359	0.639582	0.375268	0.572762	-170.326177	-84.190373	52.060388
00953		-0.349390	0.639679	0.375448	0.572518	-170.327795	-84.160252	52.082763
00954		-0.349413	0.639782	0.375623	0.572273	-170.330834	-84.129511	52.105494
00955		-0.349424	0.639883	0.375768	0.572059	-170.331600	-84.101730	52.121901
00956		-0.349428	0.639992	0.375883	0.571859	-170.319140	-84.075120	52.121484
00957		-0.349439	0.640085	0.375937	0.571713	-170.279448	-84.055688	52.088443
00958		-0.349431	0.640180	0.375963	0.571594	-170.242912	-84.038631	52.054160
00959		-0.349411	0.640257	0.375953	0.571526	-170.210428	-84.027299	52.019275
00960		-0.349408	0.640319	0.375922	0.571479	-170.161573	-84.019901	51.967365
00961		-0.349424	0.640363	0.375885	0.571445	-170.102442	-84.015535	51.906376
00962		-0.349444	0.640375	0.375859	0.571436	-170.063110	-84.015255	51.866483
00963		-0.349476	0.640374	0.375858	0.571418	-170.033656	-84.014955	51.840056
00964		-0.349509	0.640363	0.375844	0.571418	-170.001297	-84.017087	51.809466
00965		-0.349525	0.640336	0.375846	0.571439	-170.003305	-84.021172	51.812977
00966		-0.349562	0.640303	0.375856	0.571446	-169.992898	-84.024981	51.806843
00967		-0.349586	0.640277	0.375843	0.571469	-169.979857	-84.029748	51.794778
00968		-0.349616	0.640249	0.375802	0.571509	-169.947208	-84.036911	51.760791
00969		-0.349655	0.640211	0.375738	0.571569	-169.900091	-84.047369	51.711036
00970		-0.349695	0.640184	0.375685	0.571611	-169.852128	-84.055262	51.661558
00971		-0.349724	0.640152	0.375631	0.571664	-169.816489	-84.064170	51.623315
00972		-0.349765	0.640127	0.375587	0.571696	-169.770695	-84.070909	51.577089
00973		-0.349784	0.640113	0.375533	0.571736	-169.733676	-84.077072	51.536465
00974		-0.349814	0.640091	0.375490	0.571770	-169.696999	-84.083423	51.498382
00975		-0.349827	0.640077	0.375443	0.571809	-169.668150	-84.089203	51.466132
00976		-0.349850	0.640045	0.375387	0.571868	-169.637478	-84.098275	51.432049
00977		-0.349879	0.640014	0.375324	0.571925	-169.595460	-84.107559	51.386577
00978		-0.349929	0.639965	0.375263	0.571989	-169.545067	-84.119342	51.334771
00979		-0.349960	0.639931	0.375212	0.572042	-169.508935	-84.128293	51.296474
00980		-0.349985	0.639884	0.375133	0.572131	-169.471978	-84.141604	51.253996
00981		-0.350010	0.639853	0.375038	0.572213	-169.417531	-84.153517	51.192629
00982		-0.350068	0.639794	0.374947	0.572303	-169.349231	-84.169093	51.120651
00983		-0.350083	0.639760	0.374855	0.572392	-169.307828	-84.181425	51.071612
00984		-0.350105	0.639703	0.374757	0.572506	-169.268295	-84.197809	51.024472
00985		-0.350128	0.639632	0.374641	0.572648	-169.227141	-84.217924	50.973819
00986		-0.350147	0.639552	0.374516	0.572807	-169.189605	-84.240132	50.925649
00987		-0.350192	0.639453	0.374401	0.572965	-169.142281	-84.264172	50.870941
00988		-0.350237	0.639350	0.374297	0.573121	-169.103992	-84.288033	50.826409
00989		-0.350285	0.639238	0.374213	0.573272	-169.077610	-84.311790	50.795897
00990		-0.350335	0.639114	0.374143	0.573425	-169.064371	-84.336222	50.780006
00991		-0.350391	0.639010	0.374117	0.573523	-169.057028	-84.353919	50.775000
00992		-0.350439	0.638913	0.374126	0.573597	-169.071723	-84.368035	50.794638
00993		-0.350474	0.638831	0.374157	0.573646	-169.102378	-84.378143	50.831272
00994		-0.350514	0.638760	0.374193	0.573677	-169.124617	-84.386055	50.860510
00995		-0.350539	0.638692	0.374242	0.573705	-169.167129	-84.392636	50.909818
00996		-0.350555	0.638652	0.374266	0.573724	-169.188636	-84.396943	50.934948
00997		-0.350582	0.638619	0.374277	0.573738	-169.187153	-84.400989	50.936914
00998		-0.350664	0.638528	0.374280	0.573787	-169.161990	-84.413822	50.919412
00999		-0.350834	0.638389	0.374330	0.573804	-169.102382	-84.428986	50.880236
01000		-0.350984	0.638241	0.374417	0.573821	-169.088888	-84.443336	50.888685
01001		-0.350988	0.638230	0.374510	0.573771	-169.142631	-84.437940	50.951742
01002		-0.351066	0.638119	0.374615	0.573778	-169.188913	-84.446148	51.015080
01003		-0.351159	0.637974	0.374723	0.573812	-169.243723	-84.459362	51.088472
01004		-0.351088	0.637937	0.374695	0.573914	-169.322545	-84.468699	51.157691
01005		-0.351200	0.637761	0.374664	0.574062	-169.300198	-84.497399	51.142163
01006		-0.351307	0.637623	0.374682	0.574138	-169.287072	-84.516239	51.140303
01007		-0.351351	0.637559	0.374765	0.574127	-169.326876	-84.519107	51.192124
01008		-0.351424	0.637459	0.374874	0.574122	-169.375110	-84.525338	51.257372
01009		-0.351509	0.637334	0.374974	0.574144	-169.422017	-84.536113	51.321508
01010		-0.351606	0.637170	0.375044	0.574221	-169.464763	-84.555219	51.379454
01011		-0.351676	0.637012	0.375110	0.574311	-169.529412	-84.574204	51.456340
01012		-0.351750	0.636885	0.375140	0.574386	-169.550293	-84.590762	51.486656
01013		-0.351812	0.636751	0.375162	0.574483	-169.583303	-84.609470	51.527121
01014		-0.351881	0.636596	0.375146	0.574622	-169.602242	-84.634149	51.550317
01015		-0.351981	0.636444	0.375112	0.574751	-169.576138	-84.659298	51.529833
01016		-0.352077	0.636273	0.375091	0.574896	-169.573841	-84.686701	51.533807
01017		-0.352200	0.636101	0.375086	0.575014	-169.553123	-84.712410	51.523539
01018		-0.352323	0.635924	0.375093	0.575130	-169.542248	-84.737936	51.524205
01019		-0.352421	0.635751	0.375080	0.575269	-169.543210	-84.764786	51.532483
01020		-0.352476	0.635609	0.375053	0.575410	-169.562476	-84.788639	51.553832
01021		-0.352568	0.635471	0.375030	0.575521	-169.540815	-84.810750	51.538087
01022		-0.352613	0.635356	0.375011	0.575633	-169.557910	-84.829887	51.557086
01023		-0.352674	0.635214	0.375023	0.575745	-169.593418	-84.850541	51.598993
01024		-0.352685	0.635113	0.375006	0.575860	-169.638849	-84.867730	51.643331
01025		-0.352621	0.635061	0.374898	0.576027	-169.680770	-84.885538	51.668556
01026		-0.352677	0.634924	0.374789	0.576215	-169.646984	-84.914966	51.628862
01027		-0.352715	0.634818	0.374670	0.576386	-169.606011	-84.940605	51.579597
01028		-0.352761	0.634737	0.374573	0.576510	-169.551609	-84.960181	51.519823
01029		-0.352821	0.634667	0.374508	0.576592	-169.493551	-84.975230	51.460920
01030		-0.352886	0.634576	0.374472	0.576677	-169.461701	-84.991493	51.431432
01031		-0.352923	0.634512	0.374428	0.576753	-169.436964	-85.004390	51.405592
01032		-0.352913	0.634470	0.374388	0.576831	-169.452173	-85.014364	51.415878
01033		-0.352892	0.634429	0.374347	0.576916	-169.478943	-85.024505	51.436501
01034		-0.352861	0.634379	0.374321	0.577005	-169.531648	-85.034962	51.483627
01035		-0.352833	0.634333	0.374267	0.577109	-169.561424	-85.047055	51.505297
01036		-0.352840	0.634277	0.374222	0.577195	-169.565062	-85.059369	51.505051
01037		-0.352847	0.634240	0.374172	0.577264	-169.552258	-85.069078	51.487903
01038		-0.352847	0.634217	0.374164	0.577294	-169.562577	-85.073236	51.497377
01039		-0.352808	0.634208	0.374162	0.577330	-169.612788	-85.075586	51.543561
01040		-0.352770	0.634203	0.374171	0.577352	-169.664467	-85.076283	51.592556
01041		-0.352720	0.634199	0.374161	0.577394	-169.717988	-85.078681	51.640235
01042		-0.352685	0.634184	0.374146	0.577442	-169.758741	-85.082830	51.676138
01043		-0.352637	0.634203	0.374087	0.577489	-169.763646	-85.085329	51.670888
01044		-0.352577	0.634225	0.374058	0.577519	-169.798513	-85.085077	51.697437
01045		-0.352540	0.634259	0.374023	0.577527	-169.794254	-85.083015	51.686424
01046		-0.352459	0.634330	0.374010	0.577507	-169.827918	-85.074125	51.711459
01047		-0.352389	0.634410	0.374020	0.577456	-169.858183	-85.061958	51.736305
01048		-0.352299	0.634510	0.374025	0.577398	-169.891847	-85.047202	51.762227
01049		-0.352193	0.634620	0.374041	0.577331	-169.944196	-85.030274	51.806569
01050		-0.352081	0.634746	0.374054	0.577253	-169.989733	-85.011205	51.843272
01051		-0.351973	0.634874	0.374078	0.577162	-170.035248	-84.990813	51.881350
01052		-0.351852	0.635007	0.374112	0.577067	-170.096697	-84.969053	51.935150
01053		-0.351733	0.635161	0.374151	0.576945	-170.144473	-84.943540	51.976037
01054		-0.351601	0.635330	0.374180	0.576821	-170.190977	-84.916620	52.013489
01055		-0.351462	0.635497	0.374213	0.576700	-170.246743	-84.889824	52.060035
01056		-0.351350	0.635664	0.374266	0.576550	-170.285308	-84.861010	52.093751
01057		-0.351244	0.635819	0.374325	0.576405	-170.327268	-84.833532	52.131990
01058		-0.351158	0.635946	0.374402	0.576268	-170.377767	-84.808748	52.182260
01059		-0.351064	0.636080	0.374488	0.576121	-170.436827	-84.782243	52.241252
01060		-0.350962	0.636207	0.374582	0.575981	-170.511873	-84.756318	52.316340
01061		-0.350839	0.636366	0.374664	0.575828	-170.581412	-84.726593	52.382753
01062		-0.350698	0.636526	0.374716	0.575703	-170.651426	-84.699320	52.445150
01063		-0.350585	0.636692	0.374759	0.575560	-170.681468	-84.671405	52.469365
01064		-0.350472	0.636851	0.374803	0.575424	-170.717691	-84.644514	52.499770
01065		-0.350392	0.637004	0.374861	0.575266	-170.729559	-84.616937	52.510339
01066		-0.350300	0.637163	0.374938	0.575096	-170.760770	-84.587009	52.541018
01067		-0.350191	0.637346	0.375009	0.574913	-170.789616	-84.554055	52.567257
01068		-0.350091	0.637507	0.375108	0.574731	-170.838831	-84.522209	52.617210
01069		-0.349967	0.637669	0.375198	0.574567	-170.905569	-84.491270	52.681693
01070		-0.349873	0.637796	0.375260	0.574443	-170.949778	-84.467582	52.723583
01071		-0.349773	0.637926	0.375307	0.574329	-170.990327	-84.444802	52.759740
01072		-0.349683	0.638046	0.375354	0.574220	-171.027386	-84.423435	52.793387
01073		-0.349604	0.638149	0.375420	0.574111	-171.073830	-84.403120	52.839099
01074		-0.349512	0.638266	0.375458	0.574012	-171.108017	-84.382902	52.868798
01075		-0.349450	0.638372	0.375452	0.573935	-171.097398	-84.367487	52.852220
01076		-0.349465	0.638397	0.375465	0.573890	-171.074289	-84.362271	52.831905
01077		-0.349482	0.638408	0.375491	0.573850	-171.062254	-84.358057	52.824101
01078		-0.349405	0.638507	0.375504	0.573778	-171.081842	-84.342512	52.838067
01079		-0.349358	0.638582	0.375559	0.573687	-171.107651	-84.326909	52.865139
01080		-0.349308	0.638643	0.375606	0.573619	-171.141289	-84.314225	52.898839
01081		-0.349187	0.638777	0.375583	0.573559	-171.162664	-84.296747	52.907182
01082		-0.349121	0.638843	0.375507	0.573575	-171.146453	-84.293180	52.877628
01083		-0.349117	0.638909	0.375509	0.573502	-171.108455	-84.282587	52.839788
01084		-0.349053	0.639046	0.375618	0.573318	-171.138691	-84.253149	52.875028
01085		-0.348975	0.639216	0.375802	0.573055	-171.198025	-84.212597	52.945685
01086		-0.348926	0.639353	0.376033	0.572781	-171.271956	-84.173240	53.037982
01087		-0.348841	0.639478	0.376200	0.572583	-171.356271	-84.141266	53.130989
01088		-0.348733	0.639592	0.376327	0.572438	-171.449384	-84.114512	53.226809
01089		-0.348610	0.639708	0.376414	0.572326	-171.535794	-84.090946	53.310489
01090		-0.348503	0.639801	0.376463	0.572255	-171.601837	-84.073819	53.371543
01091		-0.348431	0.639862	0.376465	0.572230	-171.632829	-84.065073	53.396209
01092		-0.348407	0.639895	0.376451	0.572217	-171.627996	-84.061320	53.387939
01093		-0.348419	0.639920	0.376433	0.572193	-171.592488	-84.058616	53.351922
01094		-0.348445	0.639943	0.376456	0.572136	-171.562998	-84.052680	53.327294
01095		-0.348452	0.639972	0.376490	0.572077	-171.554623	-84.045331	53.323014
01096		-0.348449	0.639997	0.376501	0.572044	-171.546806	-84.040485	53.316034
01097		-0.348419	0.640046	0.376479	0.572022	-171.533922	-84.034884	53.298402
01098		-0.348374	0.640102	0.376438	0.572013	-171.521191	-84.029870	53.277755
01099		-0.348309	0.640187	0.376396	0.571985	-171.509526	-84.020706	53.256208
01100		-0.348231	0.640257	0.376403	0.571950	-171.543286	-84.010227	53.283634
01101		-0.348183	0.640338	0.376457	0.571854	-171.562722	-83.993781	53.304082
01102		-0.348042	0.640502	0.376425	0.571775	-171.576905	-83.972158	53.302726
01103		-0.347983	0.640563	0.376391	0.571766	-171.578287	-83.966119	53.295386
01104		-0.347975	0.640582	0.376372	0.571762	-171.564569	-83.964739	53.279250
01105		-0.347925	0.640639	0.376363	0.571735	-171.571785	-83.957203	53.281059
01106		-0.347894	0.640676	0.376380	0.571701	-171.585745	-83.950356	53.293935
01107		-0.347833	0.640750	0.376415	0.571632	-171.612658	-83.936651	53.318847
01108		-0.347782	0.640820	0.376450	0.571562	-171.633865	-83.923531	53.338928
01109		-0.347718	0.640907	0.376481	0.571483	-171.653407	-83.908149	53.355815
01110		-0.347636	0.641003	0.376546	0.571382	-171.699744	-83.888750	53.401234
01111		-0.347532	0.641093	0.376613	0.571300	-171.771062	-83.870609	53.469561
01112		-0.347462	0.641154	0.376683	0.571229	-171.829571	-83.856310	53.528533
01113		-0.347400	0.641206	0.376740	0.571170	-171.880209	-83.844222	53.579104
01114		-0.347338	0.641247	0.376781	0.571135	-171.931000	-83.835362	53.628208
01115		-0.347282	0.641291	0.376806	0.571103	-171.966513	-83.827095	53.660987
01116		-0.347219	0.641313	0.376840	0.571094	-172.026033	-83.821728	53.717937
01117		-0.347189	0.641319	0.376843	0.571103	-172.051120	-83.820965	53.740564
01118		-0.347156	0.641314	0.376847	0.571126	-172.085921	-83.821885	53.772585
01119		-0.347080	0.641341	0.376842	0.571146	-172.136809	-83.819025	53.815854
01120		-0.347021	0.641360	0.376824	0.571172	-172.170951	-83.818290	53.842832
01121		-0.346979	0.641377	0.376818	0.571182	-172.196286	-83.816705	53.863704
01122		-0.346928	0.641410	0.376813	0.571179	-172.219668	-83.812494	53.881869
01123		-0.346890	0.641448	0.376805	0.571166	-172.227876	-83.807744	53.885847
01124		-0.346834	0.641476	0.376806	0.571167	-172.261935	-83.803911	53.914848
01125		-0.346799	0.641489	0.376788	0.571186	-172.277079	-83.803807	53.925048
01126		-0.346764	0.641490	0.376770	0.571217	-172.300939	-83.805472	53.943821
01127		-0.346717	0.641487	0.376754	0.571260	-172.338561	-83.808020	53.975398
01128		-0.346689	0.641482	0.376752	0.571284	-172.366243	-83.809326	54.000210
01129		-0.346664	0.641478	0.376750	0.571306	-172.391430	-83.810458	54.022756
01130		-0.346652	0.641464	0.376742	0.571333	-172.406957	-83.813369	54.036361
01131		-0.346642	0.641466	0.376740	0.571338	-172.414095	-83.813339	54.042431
01132		-0.346632	0.641460	0.376742	0.571350	-172.427758	-83.814313	54.055191
01133		-0.346609	0.641468	0.376730	0.571362	-172.438410	-83.814241	54.062671
01134		-0.346586	0.641496	0.376718	0.571354	-172.437063	-83.811279	54.057960
01135		-0.346504	0.641529	0.376699	0.571378	-172.482825	-83.808629	54.094393
01136		-0.346445	0.641545	0.376672	0.571414	-172.515110	-83.809035	54.118429
01137		-0.346387	0.641547	0.376647	0.571464	-172.556469	-83.811563	54.151896
01138		-0.346327	0.641558	0.376621	0.571505	-172.592451	-83.812742	54.179696
01139		-0.346270	0.641574	0.376594	0.571539	-172.622231	-83.813006	54.201547
01140		-0.346257	0.641553	0.376577	0.571581	-172.639805	-83.817848	54.216179
01141		-0.346232	0.641556	0.376548	0.571612	-172.647356	-83.820103	54.218540
01142		-0.346201	0.641564	0.376560	0.571615	-172.676583	-83.818277	54.245942
01143		-0.346172	0.641605	0.376549	0.571593	-172.672730	-83.813108	54.238609
01144		-0.346112	0.641651	0.376564	0.571568	-172.704279	-83.805356	54.266080
01145		-0.346053	0.641701	0.376568	0.571544	-172.728352	-83.797811	54.285236
01146		-0.345980	0.641749	0.376573	0.571532	-172.766738	-83.790785	54.317487
01147		-0.345939	0.641772	0.376585	0.571524	-172.794966	-83.786792	54.343017
01148		-0.345916	0.641772	0.376576	0.571543	-172.811920	-83.787711	54.356943
01149		-0.345923	0.641760	0.376607	0.571532	-172.827133	-83.786976	54.375720
01150		-0.345882	0.641771	0.376640	0.571523	-172.871915	-83.783164	54.419948
01151		-0.345806	0.641825	0.376613	0.571526	-172.895418	-83.777801	54.433791
01152		-0.345802	0.641815	0.376583	0.571559	-172.891665	-83.781904	54.426778
01153		-0.345891	0.641740	0.376580	0.571591	-172.856852	-83.792785	54.399743
01154		-0.345991	0.641627	0.376590	0.571651	-172.842510	-83.808522	54.395239
01155		-0.346005	0.641611	0.376629	0.571636	-172.857390	-83.807827	54.415107
01156		-0.346047	0.641549	0.376684	0.571642	-172.881919	-83.812474	54.448725
01157		-0.346070	0.641517	0.376756	0.571617	-172.913390	-83.811369	54.489179
01158		-0.345990	0.641566	0.376746	0.571617	-172.951580	-83.805465	54.519084
01159		-0.346052	0.641530	0.376764	0.571608	-172.925164	-83.808865	54.500175
01160		-0.346094	0.641526	0.376857	0.571526	-172.930024	-83.801487	54.517962
01161		-0.346113	0.641582	0.377025	0.571341	-172.950618	-83.778623	54.556972
01162		-0.346125	0.641649	0.377234	0.571121	-172.987535	-83.750932	54.615591
01163		-0.346134	0.641703	0.377422	0.570930	-173.025923	-83.726841	54.673472
01164		-0.346143	0.641706	0.377564	0.570828	-173.076960	-83.714641	54.739116
01165		-0.346160	0.641693	0.377685	0.570751	-173.121292	-83.706473	54.796797
01166		-0.346162	0.641691	0.377777	0.570692	-173.160291	-83.699295	54.844896
01167		-0.346152	0.641697	0.377857	0.570638	-173.199914	-83.691827	54.891381
01168		-0.346156	0.641707	0.377921	0.570583	-173.217599	-83.685066	54.915697
01169		-0.346170	0.641719	0.377964	0.570531	-173.214436	-83.679350	54.918179
01170		-0.346195	0.641742	0.378013	0.570458	-173.198752	-83.671542	54.909714
01171		-0.346235	0.641750	0.378083	0.570378	-173.186829	-83.663949	54.908432
01172		-0.346304	0.641755	0.378165	0.570276	-173.156183	-83.655546	54.892389
01173		-0.346362	0.641731	0.378243	0.570216	-173.152443	-83.652267	54.901578
01174		-0.346420	0.641695	0.378323	0.570169	-173.158092	-83.650762	54.920304
01175		-0.346466	0.641685	0.378399	0.570102	-173.154737	-83.645512	54.928672
01176		-0.346483	0.641688	0.378473	0.570040	-173.169026	-83.638802	54.951729
01177		-0.346518	0.641682	0.378542	0.569978	-173.170148	-83.633533	54.962922
01178		-0.346602	0.641656	0.378648	0.569886	-173.156184	-83.627882	54.967123
01179		-0.346583	0.641697	0.378701	0.569817	-173.169088	-83.617332	54.983533
01180		-0.346582	0.641691	0.378690	0.569830	-173.168877	-83.619115	54.982235
01181		-0.346672	0.641622	0.378668	0.569868	-173.123119	-83.630742	54.942445
01182		-0.346731	0.641573	0.378678	0.569881	-173.105705	-83.637035	54.931385
01183		-0.346788	0.641559	0.378717	0.569836	-173.079430	-83.635274	54.914195
01184		-0.346815	0.641566	0.378742	0.569795	-173.061228	-83.631747	54.901083
01185		-0.346888	0.641545	0.378792	0.569742	-173.030894	-83.630177	54.882425
01186		-0.346920	0.641542	0.378849	0.569687	-173.028370	-83.625485	54.888464
01187		-0.346945	0.641532	0.378930	0.569630	-173.046822	-83.620139	54.917111
01188		-0.346958	0.641515	0.379023	0.569579	-173.084034	-83.614946	54.964551
01189		-0.346960	0.641473	0.379120	0.569561	-173.149484	-83.613651	55.039386
01190		-0.346980	0.641412	0.379177	0.569578	-173.194001	-83.618164	55.091138
01191		-0.346999	0.641339	0.379216	0.569624	-173.240262	-83.626317	55.142494
01192		-0.347012	0.641279	0.379223	0.569679	-173.269980	-83.635089	55.173855
01193		-0.347035	0.641220	0.379255	0.569709	-173.299745	-83.641325	55.208663
01194		-0.347037	0.641200	0.379257	0.569729	-173.312177	-83.644257	55.221301
01195		-0.347019	0.641204	0.379234	0.569751	-173.315668	-83.645783	55.220939
01196		-0.347026	0.641205	0.379191	0.569775	-173.291401	-83.649184	55.193085
01197		-0.346985	0.641211	0.379131	0.569833	-173.298940	-83.653685	55.190951
01198		-0.346978	0.641221	0.379067	0.569869	-173.272643	-83.657424	55.157778
01199		-0.346956	0.641260	0.378997	0.569885	-173.237078	-83.657314	55.113497
01200		-0.346936	0.641282	0.378922	0.569922	-173.210272	-83.660226	55.077619
01201		-0.346930	0.641283	0.378841	0.569978	-173.180624	-83.666754	55.039562
01202		-0.346917	0.641294	0.378784	0.570012	-173.161053	-83.670070	55.013209
01203		-0.346890	0.641314	0.378751	0.570028	-173.158703	-83.669911	55.005276
01204		-0.346851	0.641359	0.378706	0.570030	-173.146082	-83.666909	54.984780
01205		-0.346836	0.641387	0.378671	0.570032	-173.127220	-83.665684	54.961195
01206		-0.346808	0.641418	0.378627	0.570043	-173.113500	-83.664665	54.940706
01207		-0.346788	0.641456	0.378595	0.570033	-173.093548	-83.661517	54.916017
01208		-0.346772	0.641474	0.378552	0.570052	-173.078707	-83.662481	54.895512
01209		-0.346770	0.641483	0.378512	0.570070	-173.058424	-83.664455	54.871102
01210		-0.346756	0.641494	0.378490	0.570080	-173.054067	-83.664641	54.863397
01211		-0.346762	0.641519	0.378479	0.570056	-173.028609	-83.661549	54.837502
01212		-0.346764	0.641528	0.378486	0.570040	-173.024168	-83.659465	54.834026
01213		-0.346787	0.641540	0.378488	0.570011	-172.996464	-83.657188	54.808742
01214		-0.346787	0.641574	0.378481	0.569977	-172.972156	-83.652400	54.783975
01215		-0.346796	0.641618	0.378449	0.569943	-172.922474	-83.647818	54.732276
01216		-0.346799	0.641650	0.378427	0.569919	-172.889804	-83.644598	54.697962
01217		-0.346780	0.641708	0.378395	0.569887	-172.856705	-83.638343	54.660194
01218		-0.346758	0.641769	0.378350	0.569862	-172.819708	-83.632696	54.617096
01219		-0.346762	0.641803	0.378326	0.569837	-172.784103	-83.629232	54.579629
01220		-0.346784	0.641802	0.378312	0.569835	-172.759602	-83.630335	54.555854
01221		-0.346787	0.641796	0.378321	0.569833	-172.764223	-83.630326	54.561652
01222		-0.346788	0.641777	0.378323	0.569853	-172.776375	-83.633271	54.574008
01223		-0.346829	0.641740	0.378309	0.569878	-172.756765	-83.639671	54.556728
01224		-0.346850	0.641699	0.378292	0.569923	-172.755973	-83.647355	54.556034
01225		-0.346849	0.641682	0.378236	0.569981	-172.744036	-83.654677	54.538468
01226		-0.346853	0.641651	0.378177	0.570051	-172.734308	-83.664239	54.523301
01227		-0.346851	0.641649	0.378063	0.570131	-172.688994	-83.673921	54.466636
01228		-0.346853	0.641639	0.377909	0.570243	-172.626585	-83.688143	54.389409
01229		-0.346938	0.641552	0.377785	0.570371	-172.550596	-83.710847	54.308905
01230		-0.347094	0.641410	0.377664	0.570516	-172.446003	-83.741153	54.206610
01231		-0.347201	0.641280	0.377599	0.570640	-172.401368	-83.765606	54.165154
01232		-0.347218	0.641224	0.377507	0.570754	-172.380876	-83.781798	54.137039
01233		-0.347358	0.641019	0.377457	0.570931	-172.358752	-83.816369	54.122398
01234		-0.347408	0.640874	0.377355	0.571132	-172.359739	-83.847046	54.117443
01235		-0.347396	0.640785	0.377173	0.571359	-172.346239	-83.876030	54.084672
01236		-0.347516	0.640583	0.377046	0.571596	-172.305406	-83.916665	54.041879
01237		-0.347615	0.640461	0.376994	0.571707	-172.266734	-83.938801	54.006940
01238		-0.347680	0.640364	0.377042	0.571744	-172.290576	-83.949381	54.041093
01239		-0.347743	0.640271	0.377162	0.571731	-172.345783	-83.953496	54.113523
01240		-0.347784	0.640156	0.377288	0.571752	-172.439466	-83.960891	54.222769
01241		-0.347830	0.639999	0.377397	0.571827	-172.548467	-83.976196	54.345957
01242		-0.347866	0.639843	0.377489	0.571919	-172.658685	-83.992838	54.467791
01243		-0.347906	0.639684	0.377557	0.572029	-172.756920	-84.011961	54.575545
01244		-0.347951	0.639521	0.377546	0.572191	-172.817509	-84.037936	54.638537
01245		-0.348058	0.639326	0.377492	0.572379	-172.820390	-84.071653	54.645443
01246		-0.348192	0.639122	0.377373	0.572603	-172.774379	-84.111610	54.599579
01247		-0.348296	0.638924	0.377260	0.572836	-172.754988	-84.150743	54.578136
01248		-0.348402	0.638731	0.377112	0.573084	-172.712933	-84.191754	54.530898
01249		-0.348509	0.638531	0.376940	0.573355	-172.662650	-84.235901	54.473031
01250		-0.348619	0.638309	0.376781	0.573640	-172.629747	-84.282352	54.434133
01251		-0.348704	0.638120	0.376608	0.573912	-172.592097	-84.324877	54.386911
01252		-0.348764	0.637945	0.376463	0.574164	-172.581349	-84.363370	54.367059
01253		-0.348801	0.637789	0.376325	0.574407	-172.585216	-84.398702	54.360297
01254		-0.348868	0.637595	0.376223	0.574647	-172.602605	-84.436439	54.373295
01255		-0.348919	0.637430	0.376141	0.574853	-172.625962	-84.468384	54.392807
01256		-0.348905	0.637291	0.375984	0.575119	-172.660676	-84.503084	54.410246
01257		-0.348971	0.637087	0.375828	0.575406	-172.659624	-84.546795	54.399531
01258		-0.349031	0.636924	0.375717	0.575623	-172.658372	-84.580633	54.392506
01259		-0.349056	0.636837	0.375662	0.575741	-172.666967	-84.598423	54.397706
01260		-0.349045	0.636775	0.375662	0.575816	-172.723043	-84.608299	54.452517
01261		-0.349083	0.636710	0.375602	0.575903	-172.699771	-84.622730	54.426736
01262		-0.349156	0.636605	0.375547	0.576010	-172.670462	-84.642659	54.398604
01263		-0.349191	0.636529	0.375453	0.576135	-172.640137	-84.661816	54.362192
01264		-0.349235	0.636446	0.375346	0.576269	-172.598518	-84.682791	54.314028
01265		-0.349255	0.636369	0.375233	0.576416	-172.573864	-84.703791	54.280011
01266		-0.349308	0.636262	0.375108	0.576583	-172.530195	-84.729842	54.228826
01267		-0.349361	0.636155	0.374993	0.576744	-172.491044	-84.755196	54.183134
01268		-0.349428	0.636045	0.374889	0.576894	-172.444906	-84.780132	54.132700
01269		-0.349476	0.635932	0.374818	0.577034	-172.438120	-84.802777	54.123279
01270		-0.349492	0.635857	0.374755	0.577148	-172.442971	-84.819367	54.123157
01271		-0.349473	0.635785	0.374669	0.577294	-172.469594	-84.837794	54.139353
01272		-0.349467	0.635725	0.374534	0.577452	-172.447277	-84.858179	54.103156
01273		-0.349475	0.635646	0.374383	0.577632	-172.414881	-84.882569	54.056581
01274		-0.349492	0.635572	0.374211	0.577814	-172.355612	-84.907690	53.982050
01275		-0.349505	0.635504	0.374015	0.578009	-172.284484	-84.933981	53.892893
01276		-0.349536	0.635433	0.373815	0.578198	-172.190802	-84.960674	53.782538
01277		-0.349554	0.635399	0.373611	0.578355	-172.079159	-84.981950	53.652848
01278		-0.349553	0.635364	0.373430	0.578511	-172.002398	-85.001903	53.558375
01279		-0.349563	0.635316	0.373257	0.578669	-171.927851	-85.023098	53.467871
01280		-0.349544	0.635278	0.373109	0.578818	-171.892251	-85.041066	53.416079
01281		-0.349525	0.635240	0.372971	0.578960	-171.862277	-85.058326	53.370875
01282		-0.349507	0.635200	0.372870	0.579080	-171.854065	-85.072832	53.351031
01283		-0.349476	0.635160	0.372771	0.579206	-171.860653	-85.087367	53.344976
01284		-0.349491	0.635112	0.372703	0.579293	-171.840553	-85.100052	53.319573
01285		-0.349468	0.635097	0.372623	0.579375	-171.830241	-85.109161	53.299227
01286		-0.349454	0.635079	0.372595	0.579422	-171.843939	-85.114396	53.308874
01287		-0.349448	0.635096	0.372551	0.579436	-171.811828	-85.115392	53.272009
01288		-0.349429	0.635140	0.372529	0.579413	-171.787024	-85.110468	53.243522
01289		-0.349412	0.635192	0.372519	0.579372	-171.760880	-85.103307	53.214999
01290		-0.349393	0.635257	0.372494	0.579328	-171.718110	-85.095250	53.168256
01291		-0.349404	0.635305	0.372474	0.579282	-171.656663	-85.089173	53.106118
01292		-0.349423	0.635342	0.372433	0.579256	-171.583278	-85.086257	53.030732
01293		-0.349467	0.635359	0.372433	0.579211	-171.520111	-85.083078	52.971855
01294		-0.349492	0.635389	0.372435	0.579163	-171.470667	-85.077885	52.924949
01295		-0.349526	0.635435	0.372468	0.579069	-171.417324	-85.067354	52.878257
01296		-0.349533	0.635511	0.372516	0.578951	-171.380767	-85.051634	52.847330
01297		-0.349546	0.635603	0.372582	0.578799	-171.337032	-85.031610	52.811539
01298		-0.349562	0.635702	0.372651	0.578637	-171.286660	-85.010459	52.769737
01299		-0.349577	0.635808	0.372717	0.578468	-171.231413	-84.988148	52.722747
01300		-0.349595	0.635913	0.372841	0.578263	-171.207843	-84.961626	52.713324
01301		-0.349604	0.636055	0.372974	0.578015	-171.172246	-84.928536	52.691944
01302		-0.349567	0.636210	0.373107	0.577781	-171.178973	-84.894089	52.708609
01303		-0.349520	0.636382	0.373213	0.577552	-171.168810	-84.859245	52.704944
01304		-0.349477	0.636537	0.373270	0.577370	-171.136663	-84.830898	52.674871
01305		-0.349533	0.636593	0.373344	0.577226	-171.079501	-84.815346	52.630453
01306		-0.349628	0.636602	0.373443	0.577094	-171.026780	-84.804588	52.596343
01307		-0.349599	0.636732	0.373550	0.576900	-171.028164	-84.776073	52.605832
01308		-0.349576	0.636883	0.373620	0.576702	-170.987433	-84.747000	52.570315
01309		-0.349650	0.636926	0.373737	0.576533	-170.943030	-84.729674	52.544486
01310		-0.349550	0.637132	0.373746	0.576361	-170.912921	-84.697972	52.506611
01311		-0.349413	0.637383	0.373668	0.576216	-170.843130	-84.666362	52.417358
01312		-0.349393	0.637575	0.373633	0.576039	-170.715481	-84.638960	52.285224
01313		-0.349334	0.637857	0.373666	0.575741	-170.606929	-84.592444	52.175626
01314		-0.349289	0.638141	0.373784	0.575377	-170.530452	-84.538682	52.107585
01315		-0.349251	0.638408	0.373946	0.574998	-170.483690	-84.483955	52.074053
01316		-0.349206	0.638639	0.374109	0.574663	-170.466878	-84.435054	52.069825
01317		-0.349153	0.638855	0.374287	0.574339	-170.476753	-84.387462	52.092817
01318		-0.349098	0.639067	0.374454	0.574028	-170.484707	-84.341325	52.112688
01319		-0.349061	0.639248	0.374629	0.573735	-170.498270	-84.299264	52.140593
01320		-0.349011	0.639424	0.374750	0.573490	-170.499530	-84.262435	52.149607
01321		-0.348999	0.639576	0.374827	0.573277	-170.456215	-84.232216	52.113333
01322		-0.349020	0.639700	0.374885	0.573088	-170.388928	-84.207455	52.054310
01323		-0.349051	0.639807	0.374982	0.572886	-170.341524	-84.182095	52.019835
01324		-0.349065	0.639946	0.375070	0.572665	-170.287814	-84.152690	51.976625
01325		-0.349097	0.640070	0.375200	0.572421	-170.247194	-84.121986	51.952254
01326		-0.349098	0.640215	0.375361	0.572153	-170.239477	-84.086122	51.960934
01327		-0.349086	0.640382	0.375518	0.571871	-170.229058	-84.047097	51.965381
01328		-0.349054	0.640555	0.375689	0.571585	-170.240386	-84.006520	51.991093
01329		-0.349026	0.640725	0.375852	0.571304	-170.245930	-83.966748	52.010694
01330		-0.349031	0.640859	0.376045	0.571023	-170.254975	-83.929819	52.039656
01331		-0.349002	0.641036	0.376199	0.570740	-170.251707	-83.889639	52.049517
01332		-0.348965	0.641200	0.376248	0.570546	-170.213725	-83.860070	52.013567
01333		-0.349079	0.641229	0.376312	0.570402	-170.123388	-83.848475	51.940438
01334		-0.349171	0.641265	0.376386	0.570257	-170.054056	-83.835222	51.887247
01335		-0.349331	0.641254	0.376487	0.570104	-169.961298	-83.826191	51.819398
01336		-0.349516	0.641242	0.376578	0.569944	-169.842608	-83.817749	51.727177
01337		-0.349674	0.641259	0.376674	0.569765	-169.734855	-83.804628	51.643859
01338		-0.349793	0.641288	0.376741	0.569615	-169.641696	-83.792491	51.568718
01339		-0.349908	0.641315	0.376768	0.569495	-169.535198	-83.783813	51.475889
01340		-0.350023	0.641313	0.376763	0.569430	-169.429729	-83.782406	51.380890
01341		-0.350133	0.641299	0.376721	0.569407	-169.317231	-83.786044	51.274706
01342		-0.350238	0.641242	0.376644	0.569457	-169.216548	-83.799313	51.176201
01343		-0.350337	0.641167	0.376575	0.569527	-169.134587	-83.815019	51.096639
01344		-0.350394	0.641070	0.376490	0.569656	-169.093913	-83.836186	51.052645
01345		-0.350422	0.640964	0.376424	0.569802	-169.094707	-83.858010	51.049152
01346		-0.350401	0.640864	0.376350	0.569977	-169.133417	-83.880483	51.078043
01347		-0.350307	0.640807	0.376282	0.570143	-169.218857	-83.896763	51.147667
01348		-0.350141	0.640799	0.376159	0.570335	-169.314936	-83.910759	51.215960
01349		-0.349953	0.640810	0.376018	0.570532	-169.413789	-83.923617	51.283310
01350		-0.349721	0.640846	0.375823	0.570762	-169.512634	-83.937292	51.341323
01351		-0.349448	0.640935	0.375581	0.570988	-169.596513	-83.946836	51.376228
01352		-0.349132	0.641034	0.375319	0.571242	-169.704168	-83.957056	51.428944
01353		-0.348764	0.641170	0.375024	0.571508	-169.823638	-83.964921	51.485437
01354		-0.348372	0.641318	0.374701	0.571793	-169.945124	-83.973291	51.539101
01355		-0.347950	0.641461	0.374359	0.572113	-170.087427	-83.984441	51.608954
01356		-0.347474	0.641621	0.373968	0.572480	-170.246691	-83.997628	51.685856
01357		-0.346952	0.641794	0.373561	0.572867	-170.432974	-84.010442	51.784143
01358		-0.346359	0.642025	0.373069	0.573288	-170.610851	-84.021987	51.859313
01359		-0.345700	0.642284	0.372507	0.573761	-170.799230	-84.035239	51.932186
01360		-0.344977	0.642577	0.371896	0.574264	-171.003966	-84.047833	52.010872
01361		-0.344139	0.642956	0.371193	0.574796	-171.218511	-84.055258	52.080179
01362		-0.343274	0.643344	0.370507	0.575322	-171.460569	-84.060347	52.176139
01363		-0.342293	0.643811	0.369719	0.575891	-171.713633	-84.062172	52.262869
01364		-0.341320	0.644230	0.368941	0.576499	-171.993735	-84.070334	52.378269
01365		-0.340273	0.644716	0.368076	0.577127	-172.257277	-84.075439	52.462312
01366		-0.339171	0.645207	0.367188	0.577792	-172.558450	-84.081889	52.576714
01367		-0.338014	0.645753	0.366153	0.578517	-172.802742	-84.091482	52.615445
01368		-0.336861	0.646280	0.365093	0.579270	-173.043706	-84.105414	52.648978
01369		-0.335606	0.646905	0.363911	0.580044	-173.256119	-84.114286	52.633375
01370		-0.334310	0.647598	0.362716	0.580767	-173.455466	-84.113368	52.600272
01371		-0.332907	0.648403	0.361403	0.581494	-173.622783	-84.104662	52.514574
01372		-0.331454	0.649285	0.360086	0.582156	-173.782021	-84.083878	52.416463
01373		-0.329854	0.650289	0.358656	0.582827	-173.942440	-84.053644	52.296070
01374		-0.328185	0.651349	0.357241	0.583454	-174.134682	-84.013231	52.203010
01375		-0.326405	0.652481	0.355710	0.584122	-174.323155	-83.970683	52.085811
01376		-0.324575	0.653629	0.354147	0.584807	-174.527694	-83.927585	51.977440
01377		-0.322625	0.654831	0.352463	0.585559	-174.745591	-83.885537	51.860451
01378		-0.320657	0.656008	0.350749	0.586352	-174.976339	-83.848807	51.752399
01379		-0.318547	0.657271	0.348919	0.587179	-175.220893	-83.807240	51.635000
01380		-0.316312	0.658629	0.347058	0.587967	-175.495304	-83.752806	51.534253
01381		-0.313969	0.660077	0.345077	0.588765	-175.746082	-83.692596	51.389572
01382		-0.311589	0.661571	0.343124	0.589492	-176.005212	-83.621729	51.253645
01383		-0.308997	0.663222	0.341031	0.590217	-176.280469	-83.536663	51.102545
01384		-0.306227	0.665044	0.338967	0.590798	-176.603200	-83.421408	50.987228
01385		-0.303239	0.666986	0.336725	0.591432	-176.947658	-83.299773	50.858630
01386		-0.300339	0.668842	0.334453	0.592104	-177.245427	-83.191276	50.689131
01387		-0.297213	0.670832	0.331958	0.592835	-177.542765	-83.077144	50.479571
01388		-0.294106	0.672775	0.329357	0.593633	-177.797272	-82.975439	50.220027
01389		-0.291010	0.674716	0.326715	0.594415	-178.018104	-82.874540	49.925400
01390		-0.287752	0.676838	0.324116	0.595011	-178.269261	-82.739596	49.652324
01391		-0.284358	0.679084	0.321492	0.595507	-178.532638	-82.584412	49.378807
01392		-0.280955	0.681295	0.318856	0.596014	-178.807632	-82.432579	49.116162
01393		-0.277492	0.683486	0.316105	0.596593	-179.080954	-82.289566	48.837054
01394		-0.274039	0.685618	0.313304	0.597219	-179.349483	-82.156258	48.550587
01395		-0.270608	0.687673	0.310418	0.597928	-179.601076	-82.038276	48.242129
01396		-0.267240	0.689655	0.307450	0.598693	-179.807511	-81.934851	47.887683
01397		-0.263879	0.691526	0.304343	0.599612	179.992901	-81.855734	47.515075
01398		-0.260609	0.693257	0.301128	0.600666	179.832274	-81.803590	47.102385
01399		-0.257377	0.694892	0.297786	0.601834	179.704950	-81.772371	46.649185
01400		-0.254273	0.696355	0.294425	0.603116	179.593790	-81.767199	46.189743
01401		-0.251200	0.697739	0.291022	0.604454	179.489441	-81.774290	45.723404
01402		-0.248150	0.699088	0.287641	0.605773	179.385382	-81.782572	45.261871
01403		-0.245114	0.700385	0.284260	0.607105	179.276006	-81.796084	44.807847
01404		-0.242189	0.701590	0.280899	0.608450	179.198538	-81.820206	44.334302
01405		-0.239298	0.702731	0.277507	0.609833	179.133969	-81.853906	43.848853
01406		-0.236550	0.703760	0.274172	0.611225	179.100139	-81.899258	43.350845
01407		-0.234012	0.704641	0.270877	0.612654	179.131429	-81.963623	42.809972
01408		-0.231626	0.705423	0.267671	0.614068	179.193999	-82.035893	42.259416
01409		-0.229278	0.706117	0.264397	0.615568	179.282971	-82.124228	41.680253
01410		-0.227222	0.706593	0.261214	0.617141	179.445998	-82.240209	41.060407
01411		-0.225266	0.707059	0.258100	0.618633	179.661370	-82.351313	40.403771
01412		-0.223331	0.707621	0.255091	0.619940	179.906567	-82.438151	39.729379
01413		-0.221579	0.708165	0.252185	0.621134	-179.759200	-82.519322	38.991473
01414		-0.220139	0.708587	0.249449	0.622269	-179.320210	-82.608405	38.190598
01415		-0.218868	0.708975	0.246839	0.623315	-178.816497	-82.693405	37.351062
01416		-0.217800	0.709413	0.244385	0.624157	-178.203367	-82.758908	36.433676
01417		-0.216987	0.709775	0.241976	0.624967	-177.442141	-82.831313	35.394096
01418		-0.216455	0.710053	0.239643	0.625734	-176.524525	-82.909595	34.229002
01419		-0.215912	0.710479	0.237319	0.626323	-175.543414	-82.959361	33.000967
01420		-0.215300	0.711169	0.235065	0.626602	-174.549162	-82.958562	31.761119
01421		-0.214539	0.712079	0.232837	0.626660	-173.612502	-82.917070	30.569357
01422		-0.213720	0.713112	0.230691	0.626559	-172.741179	-82.848498	29.445818
01423		-0.212803	0.714217	0.228558	0.626394	-171.947432	-82.765432	28.392925
01424		-0.211848	0.715327	0.226475	0.626208	-171.226349	-82.677173	27.414129
01425		-0.210858	0.716371	0.224466	0.626073	-170.603183	-82.595552	26.536599
01426		-0.209846	0.717325	0.222621	0.625979	-170.115428	-82.521066	25.806608
01427		-0.208817	0.718122	0.220918	0.626012	-169.754546	-82.466887	25.213936
01428		-0.207887	0.718758	0.219473	0.626100	-169.498290	-82.428059	24.756079
01429		-0.206907	0.719342	0.218263	0.626177	-169.413565	-82.389527	24.485480
01430		-0.205845	0.720011	0.217227	0.626119	-169.465019	-82.330632	24.359607
01431		-0.204615	0.720818	0.216277	0.625922	-169.650378	-82.246943	24.361245
01432		-0.203337	0.721742	0.215426	0.625567	-169.898106	-82.139671	24.430087
01433		-0.202050	0.722781	0.214668	0.625044	-170.175741	-82.008296	24.536724
01434		-0.200796	0.723987	0.214034	0.624270	-170.460489	-81.842355	24.664520
01435		-0.199565	0.725340	0.213466	0.623288	-170.728891	-81.647173	24.784336
01436		-0.198463	0.726778	0.212953	0.622139	-170.922753	-81.432371	24.845898
01437		-0.197391	0.728285	0.212362	0.620918	-171.044241	-81.207422	24.831297
01438		-0.196429	0.729869	0.211670	0.619598	-171.043014	-80.970606	24.695220
01439		-0.195461	0.731498	0.210787	0.618283	-170.959025	-80.732563	24.459812
01440		-0.194557	0.733131	0.209745	0.616988	-170.779618	-80.498097	24.121038
01441		-0.193683	0.734703	0.208510	0.615810	-170.524801	-80.280072	23.692646
01442		-0.192766	0.736232	0.207099	0.614747	-170.241179	-80.075572	23.216783
01443		-0.191808	0.737717	0.205659	0.613749	-169.986724	-79.879453	22.763972
01444		-0.190777	0.739231	0.204219	0.612728	-169.778657	-79.677996	22.351707
01445		-0.189692	0.740728	0.202916	0.611689	-169.663106	-79.474645	22.039219
01446		-0.188675	0.742135	0.201799	0.610667	-169.600732	-79.278822	21.801353
01447		-0.187616	0.743482	0.200847	0.609669	-169.629195	-79.087966	21.664621
01448		-0.186614	0.744701	0.200042	0.608752	-169.697426	-78.913314	21.584749
01449		-0.185698	0.745755	0.199356	0.607966	-169.782685	-78.762502	21.538541
01450		-0.184834	0.746751	0.198762	0.607200	-169.881434	-78.617490	21.517999
01451		-0.183998	0.747723	0.198227	0.606433	-169.988499	-78.474169	21.513009
01452		-0.183214	0.748703	0.197755	0.605614	-170.090984	-78.325815	21.513515
01453		-0.182342	0.749738	0.197292	0.604748	-170.230124	-78.168347	21.544292
01454		-0.181493	0.750787	0.196814	0.603857	-170.349594	-78.008053	21.556137
01455		-0.180528	0.751896	0.196255	0.602947	-170.486194	-77.841010	21.568804
01456		-0.179598	0.752998	0.195684	0.602035	-170.601983	-77.674717	21.562612
01457		-0.178591	0.754108	0.195054	0.601149	-170.729500	-77.509624	21.556660
01458		-0.177508	0.755223	0.194400	0.600281	-170.879151	-77.345149	21.564411
01459		-0.176290	0.756369	0.193637	0.599444	-171.046593	-77.180456	21.569394
01460		-0.174969	0.757498	0.192786	0.598679	-171.228902	-77.022704	21.572961
01461		-0.173610	0.758525	0.191810	0.598087	-171.396564	-76.888024	21.547597
01462		-0.172215	0.759442	0.190729	0.597672	-171.556346	-76.777136	21.501634
01463		-0.170745	0.760372	0.189588	0.597275	-171.726037	-76.666541	21.454385
01464		-0.169097	0.761343	0.188213	0.596941	-171.894129	-76.558196	21.370698
01465		-0.167453	0.762086	0.186597	0.596964	-172.011539	-76.499566	21.214937
01466		-0.165843	0.762878	0.185090	0.596871	-172.142149	-76.426884	21.085090
01467		-0.163989	0.764073	0.183703	0.596283	-172.363983	-76.277951	21.038483
01468		-0.162215	0.765298	0.182524	0.595559	-172.607393	-76.114300	21.038243
01469		-0.160743	0.766310	0.181482	0.594974	-172.790058	-75.980644	21.013346
01470		-0.159082	0.767193	0.180067	0.594713	-172.953364	-75.885453	20.920665
01471		-0.157304	0.767889	0.178300	0.594820	-173.081780	-75.837639	20.752429
01472		-0.155370	0.768650	0.176386	0.594916	-173.223055	-75.783482	20.571801
01473		-0.153108	0.769848	0.174500	0.594509	-173.453742	-75.649763	20.458147
01474		-0.150748	0.771346	0.172822	0.593661	-173.746025	-75.452764	20.417297
01475		-0.148626	0.772773	0.171468	0.592732	-174.037904	-75.253953	20.423370
01476		-0.146635	0.774038	0.170252	0.591927	-174.328407	-75.078091	20.450139
01477		-0.144577	0.775252	0.168909	0.591228	-174.611447	-74.915523	20.452906
01478		-0.142433	0.776550	0.167381	0.590480	-174.866979	-74.743030	20.405771
01479		-0.140201	0.778015	0.165589	0.589590	-175.069821	-74.547504	20.277315
01480		-0.137870	0.779712	0.163568	0.588461	-175.227963	-74.314991	20.077895
01481		-0.135361	0.781695	0.161314	0.587034	-175.364483	-74.035760	19.824085
01482		-0.132850	0.783832	0.159009	0.585384	-175.476309	-73.726367	19.542204
01483		-0.130401	0.786048	0.156736	0.583574	-175.570214	-73.397615	19.250989
01484		-0.128006	0.788289	0.154548	0.581662	-175.665853	-73.058092	18.973701
01485		-0.125681	0.790506	0.152473	0.579703	-175.767811	-72.716087	18.718146
01486		-0.123600	0.792649	0.150706	0.577683	-175.867316	-72.374244	18.506405
01487		-0.121658	0.794743	0.149152	0.575619	-175.973112	-72.031995	18.330518
01488		-0.119683	0.796778	0.147611	0.573613	-176.096084	-71.698575	18.169967
01489		-0.117667	0.798620	0.145976	0.571884	-176.227828	-71.403732	18.005697
01490		-0.115730	0.800280	0.144352	0.570369	-176.352048	-71.141811	17.840444
01491		-0.113872	0.801837	0.142761	0.568955	-176.467470	-70.896949	17.675230
01492		-0.112139	0.803395	0.141236	0.567480	-176.559460	-70.647411	17.502733
01493		-0.110494	0.804974	0.139794	0.565921	-176.640935	-70.389387	17.334290
01494		-0.108923	0.806604	0.138385	0.564247	-176.704746	-70.117972	17.157635
01495		-0.107331	0.808371	0.136930	0.562376	-176.757141	-69.819541	16.964730
01496		-0.105774	0.810223	0.135488	0.560351	-176.798050	-69.501494	16.765097
01497		-0.104391	0.812034	0.134124	0.558314	-176.810132	-69.186497	16.557443
01498		-0.103214	0.813773	0.132885	0.556293	-176.795982	-68.879300	16.351126
01499		-0.102193	0.815455	0.131782	0.554277	-176.769936	-68.577146	16.157139
01500		-0.101345	0.817091	0.130852	0.552241	-176.733004	-68.276983	15.981146
01501		-0.100543	0.818767	0.130026	0.550096	-176.701389	-67.963784	15.823542
01502		-0.099859	0.820492	0.129337	0.547807	-176.660797	-67.634287	15.678880
01503		-0.099324	0.822279	0.128771	0.545353	-176.601062	-67.286202	15.538498
01504		-0.098871	0.824176	0.128220	0.542695	-176.519626	-66.912497	15.385435
01505		-0.098467	0.826167	0.127617	0.539876	-176.416518	-66.518371	15.211370
01506		-0.098102	0.828127	0.126843	0.537115	-176.283982	-66.132821	14.996635
01507		-0.097983	0.829870	0.126022	0.534635	-176.102400	-65.790201	14.748069
01508		-0.098237	0.831382	0.125313	0.532401	-175.865485	-65.488424	14.483652
01509		-0.098861	0.832737	0.124838	0.530275	-175.588343	-65.208837	14.229088
01510		-0.099807	0.833946	0.124628	0.528242	-175.285729	-64.948687	13.997833
01511		-0.101214	0.834914	0.124775	0.526408	-174.941699	-64.724962	13.792749
01512		-0.102957	0.835710	0.125233	0.524696	-174.574942	-64.525194	13.618871
01513		-0.104969	0.836359	0.125971	0.523084	-174.194186	-64.345115	13.476739
01514		-0.107254	0.836818	0.126897	0.521661	-173.786936	-64.196230	13.346064
01515		-0.109605	0.837213	0.127852	0.520303	-173.373627	-64.057780	13.217248
01516		-0.111601	0.837758	0.128544	0.518828	-173.002348	-63.895924	13.079577
01517		-0.113150	0.838522	0.128881	0.517173	-172.680200	-63.700166	12.924860
01518		-0.114161	0.839551	0.128782	0.515302	-172.416038	-63.463399	12.747743
01519		-0.114711	0.840848	0.128335	0.513173	-172.204686	-63.181959	12.557014
01520		-0.114921	0.842333	0.127694	0.510845	-172.041891	-62.867316	12.371381
01521		-0.114946	0.843870	0.127061	0.508454	-171.922561	-62.542016	12.214674
01522		-0.114950	0.845341	0.126549	0.506133	-171.827038	-62.227397	12.089811
01523		-0.114981	0.846645	0.126258	0.504015	-171.758236	-61.942663	12.011684
01524		-0.115058	0.847748	0.126164	0.502163	-171.709148	-61.696437	11.972197
01525		-0.115176	0.848667	0.126280	0.500551	-171.680574	-61.484955	11.973057
01526		-0.115400	0.849430	0.126620	0.499119	-171.660018	-61.301230	12.008835
01527		-0.115690	0.850054	0.127216	0.497836	-171.658522	-61.140953	12.090025
01528		-0.115989	0.850700	0.128012	0.496456	-171.677652	-60.970064	12.210166
01529		-0.116166	0.851448	0.128932	0.494893	-171.732994	-60.774632	12.368080
01530		-0.116233	0.852258	0.129958	0.493212	-171.819875	-60.563143	12.558165
01531		-0.116229	0.853098	0.131038	0.491470	-171.924627	-60.343346	12.765271
01532		-0.116143	0.854010	0.132204	0.489591	-172.051448	-60.105075	12.995736
01533		-0.115958	0.855000	0.133352	0.487592	-172.190905	-59.849465	13.230049
01534		-0.115709	0.856024	0.134474	0.485542	-172.335994	-59.586115	13.462981
01535		-0.115604	0.856977	0.135641	0.483558	-172.456152	-59.334234	13.686786
01536		-0.115599	0.857907	0.136839	0.481569	-172.557502	-59.083658	13.903029
01537		-0.115524	0.858842	0.138021	0.479577	-172.667850	-58.831853	14.121397
01538		-0.115429	0.859821	0.139208	0.477499	-172.778543	-58.568550	14.339657
01539		-0.115370	0.860812	0.140422	0.475368	-172.881447	-58.299416	14.556057
01540		-0.115289	0.861874	0.141661	0.473090	-172.985673	-58.011259	14.775422
01541		-0.115228	0.863004	0.142935	0.470655	-173.083958	-57.703479	14.995001
01542		-0.115294	0.864123	0.144228	0.468185	-173.156957	-57.394014	15.202368
01543		-0.115625	0.865203	0.145632	0.465667	-173.188831	-57.084234	15.401344
01544		-0.116133	0.866283	0.147137	0.463052	-173.194483	-56.766385	15.599039
01545		-0.116758	0.867387	0.148726	0.460313	-173.182593	-56.435977	15.797792
01546		-0.117447	0.868511	0.150331	0.457488	-173.157240	-56.096487	15.991260
01547		-0.118155	0.869734	0.151979	0.454427	-173.125786	-55.728199	16.186450
01548		-0.118846	0.871186	0.153808	0.450836	-173.101310	-55.293907	16.407916
01549		-0.119717	0.872855	0.156052	0.446587	-173.067013	-54.783217	16.677241
01550		-0.121289	0.874393	0.159003	0.442090	-172.966408	-54.261486	17.005099
01551		-0.123839	0.875559	0.162686	0.437715	-172.762451	-53.782870	17.377941
01552		-0.126623	0.876488	0.166803	0.433487	-172.556975	-53.334508	17.807989
01553		-0.129426	0.877204	0.171138	0.429505	-172.369178	-52.923016	18.276483
01554		-0.133693	0.877325	0.175841	0.426035	-171.976003	-52.613796	18.695276
01555		-0.139325	0.877219	0.180702	0.422400	-171.364468	-52.319046	19.031807
01556		-0.145888	0.877321	0.186035	0.417630	-170.614547	-51.912716	19.367730
01557		-0.152947	0.877271	0.192226	0.412372	-169.845410	-51.474028	19.813446
01558		-0.156998	0.876746	0.196518	0.409939	-169.476184	-51.309093	20.201978
01559		-0.160809	0.875293	0.199760	0.409998	-169.114543	-51.442469	20.455807
01560		-0.162426	0.874131	0.201764	0.410857	-169.029820	-51.612505	20.677306
01561		-0.158937	0.874295	0.201375	0.412062	-169.597983	-51.678175	20.893428
01562		-0.152871	0.875205	0.199776	0.413202	-170.489712	-51.660839	21.104477
01563		-0.146028	0.876161	0.197560	0.414714	-171.467364	-51.666206	21.276677
01564		-0.139500	0.876685	0.195040	0.417040	-172.391334	-51.780086	21.388007
01565		-0.134057	0.876866	0.192884	0.419441	-173.173012	-51.934097	21.483710
01566		-0.129952	0.876999	0.191446	0.421111	-173.775986	-52.034808	21.588303
01567		-0.127503	0.876894	0.190678	0.422423	-174.153764	-52.135577	21.673756
01568		-0.126731	0.876295	0.190391	0.424025	-174.306423	-52.316478	21.717949
01569		-0.127022	0.875267	0.190225	0.426131	-174.310079	-52.587460	21.710099
01570		-0.127647	0.874218	0.190038	0.428176	-174.254649	-52.859123	21.670906
01571		-0.127734	0.873481	0.189608	0.429842	-174.255247	-53.068666	21.624243
01572		-0.127283	0.872963	0.188930	0.431324	-174.318485	-53.240468	21.574286
01573		-0.126782	0.872522	0.188164	0.432697	-174.378838	-53.397032	21.510884
01574		-0.126198	0.872259	0.187383	0.433735	-174.441250	-53.509333	21.444518
01575		-0.125596	0.872190	0.186587	0.434391	-174.493282	-53.572798	21.368921
01576		-0.125164	0.872263	0.185828	0.434693	-174.508496	-53.595994	21.277876
01577		-0.124857	0.872430	0.185119	0.434750	-174.499182	-53.591359	21.179781
01578		-0.124723	0.872579	0.184505	0.434751	-174.467357	-53.584484	21.083078
01579		-0.124723	0.872655	0.184045	0.434793	-174.427896	-53.586861	21.003037
01580		-0.124756	0.872684	0.183697	0.434873	-174.393954	-53.595543	20.940839
01581		-0.124835	0.872724	0.183458	0.434870	-174.359370	-53.595445	20.892271
01582		-0.124888	0.872809	0.183327	0.434741	-174.334753	-53.579519	20.861990
01583		-0.124817	0.873001	0.183250	0.434407	-174.329949	-53.535049	20.847630
01584		-0.124628	0.873301	0.183221	0.433869	-174.342702	-53.462429	20.846982
01585		-0.124362	0.873729	0.183248	0.433073	-174.365747	-53.355535	20.857372
01586		-0.124009	0.874259	0.183337	0.432066	-174.402119	-53.220503	20.881068
01587		-0.123659	0.874832	0.183531	0.430922	-174.442785	-53.068999	20.919961
01588		-0.123399	0.875380	0.183863	0.429741	-174.478825	-52.915827	20.974389
01589		-0.123102	0.875912	0.184287	0.428557	-174.528618	-52.762097	21.047548
01590		-0.122635	0.876487	0.184822	0.427285	-174.612656	-52.593978	21.150961
01591		-0.122249	0.877015	0.185566	0.425986	-174.699541	-52.425763	21.282777
01592		-0.121975	0.877507	0.186543	0.424625	-174.784641	-52.253680	21.443565
01593		-0.121955	0.878024	0.187904	0.422958	-174.849262	-52.051664	21.642693
01594		-0.122667	0.878482	0.189865	0.420920	-174.830976	-51.824584	21.878772
01595		-0.123937	0.878842	0.192172	0.418743	-174.744442	-51.596201	22.127126
01596		-0.126098	0.878762	0.194450	0.417212	-174.531064	-51.471577	22.316658
01597		-0.129658	0.878217	0.196555	0.416281	-174.096240	-51.456915	22.384229
01598		-0.134021	0.877709	0.198195	0.415191	-173.488665	-51.440287	22.309991
01599		-0.138492	0.877911	0.199750	0.412544	-172.811569	-51.231338	22.186445
01600		-0.142284	0.878918	0.201415	0.408277	-172.211033	-50.805087	22.110981
01601		-0.146947	0.879727	0.203658	0.403746	-171.515886	-50.374162	22.073270
01602		-0.153546	0.879749	0.207545	0.399237	-170.646138	-50.013190	22.177684
01603		-0.158069	0.878866	0.210612	0.397807	-170.125555	-49.980138	22.341105
01604		-0.163480	0.876460	0.213392	0.399445	-169.517508	-50.350849	22.429295
01605		-0.167458	0.873903	0.215328	0.402350	-169.101027	-50.836413	22.492160
01606		-0.167284	0.872519	0.215641	0.405248	-169.225824	-51.198364	22.591027
01607		-0.163900	0.872221	0.214686	0.407771	-169.763668	-51.417158	22.717159
01608		-0.159300	0.872383	0.212942	0.410156	-170.434924	-51.579330	22.804373
01609		-0.154786	0.872742	0.210856	0.412192	-171.057122	-51.697587	22.825715
01610		-0.150888	0.873198	0.208673	0.413780	-171.559395	-51.775856	22.778499
01611		-0.148288	0.873484	0.206812	0.415049	-171.867694	-51.851547	22.682484
01612		-0.147460	0.873366	0.205673	0.416156	-171.941231	-51.959054	22.570950
01613		-0.147849	0.872916	0.205192	0.417197	-171.867374	-52.095147	22.476117
01614		-0.148616	0.872218	0.205109	0.418425	-171.769647	-52.267933	22.422903
01615		-0.149681	0.871061	0.205183	0.420414	-171.657031	-52.545533	22.385478
01616		-0.151002	0.869532	0.205416	0.422986	-171.531050	-52.904979	22.363947
01617		-0.151752	0.868047	0.205456	0.425740	-171.488286	-53.271688	22.357405
01618		-0.152088	0.866701	0.205151	0.428499	-171.484792	-53.626021	22.324373
01619		-0.152176	0.865682	0.204519	0.430824	-171.480887	-53.916497	22.246256
01620		-0.151867	0.865159	0.203579	0.432425	-171.495410	-54.102509	22.133797
01621		-0.151179	0.865083	0.202350	0.433395	-171.529669	-54.196402	21.990495
01622		-0.150620	0.865165	0.201108	0.434003	-171.529956	-54.247710	21.827431
01623		-0.150296	0.865223	0.200021	0.434501	-171.500863	-54.292356	21.670011
01624		-0.150096	0.865230	0.199179	0.434943	-171.470900	-54.335364	21.544459
01625		-0.150005	0.865145	0.198628	0.435396	-171.448853	-54.385293	21.461506
01626		-0.149966	0.864946	0.198334	0.435939	-171.443705	-54.450506	21.421445
01627		-0.150055	0.864603	0.198294	0.436606	-171.443265	-54.537182	21.417922
01628		-0.150144	0.864255	0.198412	0.437210	-171.455616	-54.617354	21.441570
01629		-0.149967	0.864021	0.198594	0.437652	-171.515396	-54.671001	21.497253
01630		-0.149761	0.863827	0.198841	0.437992	-171.583686	-54.711673	21.565644
01631		-0.149440	0.863694	0.199103	0.438244	-171.670667	-54.738476	21.645178
01632		-0.148787	0.863726	0.199252	0.438335	-171.800241	-54.735521	21.730703
01633		-0.148125	0.863835	0.199480	0.438242	-171.933191	-54.709470	21.827690
01634		-0.147326	0.864045	0.199759	0.437969	-172.089124	-54.657618	21.942162
01635		-0.146328	0.864363	0.200071	0.437534	-172.276800	-54.580366	22.076077
01636		-0.145287	0.864692	0.200435	0.437065	-172.475229	-54.497940	22.221847
01637		-0.144105	0.865099	0.200817	0.436474	-172.694669	-54.396368	22.379524
01638		-0.142741	0.865643	0.201224	0.435655	-172.939166	-54.261368	22.551288
01639		-0.141360	0.866192	0.201602	0.434840	-173.182684	-54.125898	22.717986
01640		-0.140285	0.866731	0.202063	0.433899	-173.376185	-53.982733	22.869614
01641		-0.139570	0.867334	0.202729	0.432612	-173.514404	-53.806586	23.018664
01642		-0.139621	0.867906	0.203678	0.431000	-173.536414	-53.611258	23.145771
01643		-0.140548	0.868510	0.204933	0.428881	-173.420728	-53.377279	23.243161
01644		-0.142172	0.869126	0.206319	0.426426	-173.189137	-53.120750	23.300398
01645		-0.144779	0.869605	0.207856	0.423819	-172.803386	-52.872645	23.303920
01646		-0.147709	0.870293	0.209416	0.420615	-172.349667	-52.559265	23.277508
01647		-0.150471	0.871336	0.210980	0.416677	-171.905268	-52.150352	23.256360
01648		-0.153114	0.872624	0.212749	0.412093	-171.482341	-51.661028	23.274238
01649		-0.155539	0.873959	0.214717	0.407307	-171.109250	-51.144749	23.345432
01650		-0.158797	0.874866	0.217152	0.402789	-170.650335	-50.690754	23.443349
01651		-0.164555	0.874996	0.220279	0.398472	-169.855369	-50.337691	23.484350
01652		-0.170207	0.874684	0.224349	0.394493	-169.163845	-50.039302	23.702198
01653		-0.176033	0.872582	0.227484	0.394796	-168.485530	-50.270764	23.807080
01654		-0.184121	0.868737	0.230753	0.397678	-167.514941	-50.889335	23.792213
01655		-0.187765	0.865972	0.232052	0.401234	-167.113765	-51.449315	23.773151
01656		-0.185895	0.865373	0.231639	0.403628	-167.445043	-51.692777	23.870132
01657		-0.181049	0.866152	0.230413	0.404861	-168.170002	-51.699770	24.046423
01658		-0.175564	0.867547	0.228880	0.405158	-168.948190	-51.568664	24.206921
01659		-0.170524	0.869034	0.227234	0.405052	-169.630552	-51.398600	24.306289
01660		-0.167503	0.869887	0.226015	0.405162	-170.024352	-51.316210	24.327869
01661		-0.166981	0.869642	0.225606	0.406131	-170.104120	-51.418378	24.312929
01662		-0.168122	0.868540	0.225784	0.407915	-169.985284	-51.674430	24.285086
01663		-0.169568	0.867255	0.226361	0.409727	-169.849779	-51.947172	24.301929
01664		-0.170628	0.866069	0.226984	0.411448	-169.778353	-52.199004	24.354574
01665		-0.171584	0.864869	0.227361	0.413362	-169.708904	-52.469640	24.375903
01666		-0.172372	0.863800	0.227367	0.415261	-169.634812	-52.729760	24.345453
01667		-0.172804	0.863064	0.227005	0.416807	-169.577266	-52.931638	24.273017
01668		-0.173224	0.862540	0.226454	0.418015	-169.494561	-53.088539	24.162282
01669		-0.173832	0.862070	0.225839	0.419063	-169.369338	-53.229488	24.021715
01670		-0.174401	0.861677	0.225186	0.419986	-169.242895	-53.353145	23.874951
01671		-0.174848	0.861284	0.224568	0.420936	-169.140129	-53.477359	23.744083
01672		-0.175396	0.860763	0.224152	0.421995	-169.040193	-53.620448	23.641310
01673		-0.175969	0.860109	0.223956	0.423192	-168.958722	-53.784513	23.576683
01674		-0.176456	0.859385	0.223909	0.424482	-168.907324	-53.960150	23.546800
01675		-0.176817	0.858672	0.223948	0.425752	-168.884256	-54.131009	23.542156
01676		-0.177049	0.858029	0.223998	0.426924	-168.881597	-54.286263	23.548952
01677		-0.177177	0.857485	0.223984	0.427971	-168.887439	-54.422228	23.551326
01678		-0.177351	0.857069	0.224026	0.428710	-168.881893	-54.521223	23.555104
01679		-0.177335	0.856833	0.224019	0.429191	-168.897443	-54.581667	23.562618
01680		-0.177270	0.856692	0.223925	0.429549	-168.910156	-54.624176	23.556874
01681		-0.177582	0.856432	0.223893	0.429954	-168.864478	-54.683516	23.530310
01682		-0.177891	0.856243	0.223796	0.430254	-168.810388	-54.728569	23.490552
01683		-0.177969	0.856187	0.223551	0.430460	-168.779900	-54.753746	23.442781
01684		-0.178185	0.856032	0.223283	0.430817	-168.727356	-54.801288	23.380865
01685		-0.178485	0.855816	0.223033	0.431253	-168.663972	-54.861366	23.315941
01686		-0.178516	0.855698	0.222713	0.431638	-168.639123	-54.906954	23.260943
01687		-0.178313	0.855678	0.222366	0.431941	-168.650370	-54.935598	23.220323
01688		-0.177930	0.855736	0.221954	0.432196	-168.685348	-54.952452	23.183029
01689		-0.177449	0.855871	0.221537	0.432339	-168.733900	-54.952558	23.151617
01690		-0.177006	0.856059	0.221126	0.432360	-168.773204	-54.938200	23.116409
01691		-0.176587	0.856282	0.220727	0.432293	-168.806986	-54.913474	23.079832
01692		-0.176193	0.856530	0.220343	0.432159	-168.836053	-54.881150	23.042894
01693		-0.175744	0.856798	0.219983	0.431993	-168.876008	-54.843606	23.014563
01694		-0.175182	0.857103	0.219562	0.431832	-168.930217	-54.803009	22.985228
01695		-0.174557	0.857412	0.219127	0.431692	-168.994369	-54.763312	22.959084
01696		-0.173826	0.857757	0.218683	0.431527	-169.075523	-54.717731	22.940156
01697		-0.173004	0.858152	0.218228	0.431301	-169.169542	-54.661862	22.926037
01698		-0.172106	0.858590	0.217783	0.431013	-169.275839	-54.596431	22.919449
01699		-0.171134	0.859060	0.217373	0.430671	-169.396534	-54.522627	22.924358
01700		-0.170096	0.859528	0.216910	0.430381	-169.524862	-54.453242	22.926051
01701		-0.168973	0.859994	0.216427	0.430137	-169.667185	-54.387261	22.932074
01702		-0.167764	0.860457	0.215858	0.429970	-169.818344	-54.327959	22.930945
01703		-0.166432	0.860951	0.215176	0.429842	-169.981137	-54.269138	22.920520
01704		-0.165087	0.861462	0.214389	0.429730	-170.136871	-54.211084	22.892524
01705		-0.163717	0.862054	0.213507	0.429505	-170.284910	-54.137230	22.847792
01706		-0.162245	0.862810	0.212541	0.429024	-170.435318	-54.027636	22.792196
01707		-0.160519	0.863746	0.211422	0.428342	-170.609186	-53.884598	22.727237
01708		-0.158670	0.864754	0.210165	0.427615	-170.790115	-53.731915	22.646965
01709		-0.156858	0.865718	0.208821	0.426992	-170.959672	-53.592783	22.549773
01710		-0.155140	0.866643	0.207400	0.426434	-171.108439	-53.464195	22.432253
01711		-0.153494	0.867499	0.205964	0.425987	-171.246841	-53.351641	22.307969
01712		-0.151982	0.868299	0.204561	0.425574	-171.366681	-53.247690	22.179122
01713		-0.150463	0.869109	0.203126	0.425148	-171.484620	-53.142111	22.045167
01714		-0.148879	0.869954	0.201634	0.424687	-171.607673	-53.030338	21.905972
01715		-0.147213	0.870843	0.200061	0.424189	-171.736724	-52.911700	21.759089
01716		-0.145564	0.871735	0.198446	0.423685	-171.859180	-52.792936	21.603417
01717		-0.143890	0.872641	0.196820	0.423150	-171.984374	-52.670043	21.447693
01718		-0.142201	0.873565	0.195198	0.422564	-172.111038	-52.541088	21.293063
01719		-0.140513	0.874505	0.193594	0.421923	-172.237873	-52.405878	21.140819
01720		-0.138824	0.875465	0.191955	0.421239	-172.361098	-52.265601	20.982150
01721		-0.137087	0.876476	0.190231	0.420487	-172.483522	-52.115405	20.811710
01722		-0.135324	0.877532	0.188388	0.419685	-172.599470	-51.958074	20.622693
01723		-0.133606	0.878634	0.186493	0.418774	-172.701213	-51.788439	20.419900
01724		-0.131899	0.879802	0.184518	0.417737	-172.792133	-51.603065	20.201349
01725		-0.130163	0.881026	0.182469	0.416601	-172.880056	-51.404901	19.971778
01726		-0.128430	0.882268	0.180284	0.415459	-172.957180	-51.205678	19.719720
01727		-0.126690	0.883512	0.178057	0.414309	-173.033210	-51.005780	19.462217
01728		-0.124931	0.884769	0.175735	0.413150	-173.105754	-50.804520	19.191065
01729		-0.123183	0.886048	0.173370	0.411931	-173.172899	-50.596470	18.912122
01730		-0.121508	0.887326	0.170992	0.410669	-173.227600	-50.385265	18.626275
01731		-0.119975	0.888581	0.168675	0.409363	-173.264676	-50.172679	18.340660
01732		-0.118643	0.889769	0.166482	0.408067	-173.281061	-49.967010	18.062282
01733		-0.117521	0.890890	0.164466	0.406762	-173.278381	-49.766294	17.798588
01734		-0.116475	0.891971	0.162585	0.405447	-173.275241	-49.567297	17.552767
01735		-0.115472	0.893045	0.160820	0.404072	-173.273963	-49.362876	17.323036
01736		-0.114569	0.894122	0.159223	0.402577	-173.268193	-49.147003	17.113444
01737		-0.113698	0.895217	0.157726	0.400976	-173.263624	-48.919585	16.917421
01738		-0.112816	0.896317	0.156256	0.399340	-173.263389	-48.688083	16.727335
01739		-0.112104	0.897340	0.154822	0.397799	-173.242181	-48.472226	16.533233
01740		-0.111452	0.898303	0.153379	0.396366	-173.214205	-48.271014	16.335570
01741		-0.110836	0.899244	0.151919	0.394963	-173.181079	-48.074365	16.133933
01742		-0.110273	0.900155	0.150511	0.393582	-173.144849	-47.881890	15.938132
01743		-0.109750	0.901054	0.149151	0.392187	-173.106792	-47.689018	15.748213
01744		-0.109316	0.901914	0.147874	0.390812	-173.062064	-47.500933	15.566419
01745		-0.108984	0.902745	0.146718	0.389420	-173.010716	-47.313381	15.397601
01746		-0.108717	0.903553	0.145659	0.388016	-172.956847	-47.126473	15.240517
01747		-0.108587	0.904292	0.144744	0.386669	-172.893348	-46.950060	15.097984
01748		-0.108567	0.904988	0.143948	0.385342	-172.822342	-46.778810	14.967853
01749		-0.108598	0.905658	0.143273	0.384008	-172.752211	-46.608712	14.853709
01750		-0.108703	0.906303	0.142732	0.382657	-172.680148	-46.438674	14.756139
01751		-0.108784	0.906938	0.142267	0.381301	-172.617321	-46.268295	14.672386
01752		-0.108849	0.907546	0.141851	0.379989	-172.561125	-46.103595	14.597852
01753		-0.108896	0.908109	0.141461	0.378772	-172.511213	-45.950637	14.529447
01754		-0.109086	0.908598	0.141133	0.377667	-172.445916	-45.814375	14.462610
01755		-0.109280	0.909063	0.140861	0.376590	-172.384199	-45.682151	14.404412
01756		-0.109341	0.909591	0.140630	0.375382	-172.343548	-45.531963	14.360542
01757		-0.109416	0.910097	0.140480	0.374188	-172.306431	-45.384517	14.328414
01758		-0.109540	0.910589	0.140442	0.372968	-172.268821	-45.235643	14.310491
01759		-0.109498	0.911120	0.140401	0.371696	-172.255375	-45.077851	14.302286
01760		-0.109471	0.911624	0.140385	0.370472	-172.241912	-44.926496	14.297201
01761		-0.109556	0.912082	0.140458	0.369292	-172.217943	-44.783062	14.298894
01762		-0.109743	0.912501	0.140644	0.368126	-172.186000	-44.644087	14.311738
01763		-0.110044	0.912870	0.140941	0.367007	-172.144646	-44.513587	14.334625
01764		-0.110397	0.913194	0.141308	0.365953	-172.100769	-44.392672	14.365080
01765		-0.110749	0.913521	0.141706	0.364873	-172.058459	-44.268911	14.400342
01766		-0.111070	0.913852	0.142073	0.363805	-172.019097	-44.145838	14.432906
01767		-0.111384	0.914181	0.142326	0.362780	-171.974459	-44.027197	14.449132
01768		-0.111728	0.914462	0.142472	0.361908	-171.921117	-43.926773	14.448242
01769		-0.112119	0.914700	0.142544	0.361158	-171.858055	-43.841574	14.433963
01770		-0.112513	0.914936	0.142555	0.360432	-171.791398	-43.758694	14.410795
01771		-0.112778	0.915223	0.142492	0.359645	-171.738646	-43.665767	14.384214
01772		-0.112940	0.915552	0.142357	0.358808	-171.696337	-43.564457	14.352930
01773		-0.113049	0.915908	0.142169	0.357938	-171.658172	-43.457884	14.316808
01774		-0.113103	0.916249	0.141872	0.357166	-171.623178	-43.361486	14.268304
01775		-0.113176	0.916552	0.141545	0.356496	-171.584934	-43.277531	14.214454
01776		-0.113322	0.916830	0.141199	0.355871	-171.535906	-43.200122	14.154095
01777		-0.113419	0.917099	0.140873	0.355274	-171.495535	-43.125481	14.099607
01778		-0.113432	0.917350	0.140628	0.354720	-171.472745	-43.055590	14.062012
01779		-0.113406	0.917577	0.140492	0.354195	-171.462407	-42.989791	14.042657
01780		-0.113321	0.917788	0.140511	0.353666	-171.469412	-42.923875	14.049533
01781		-0.113140	0.917951	0.140578	0.353275	-171.494721	-42.873957	14.068974
01782		-0.112941	0.918054	0.140717	0.353016	-171.528435	-42.840538	14.100047
01783		-0.112696	0.918163	0.140880	0.352745	-171.569912	-42.805198	14.137319
01784		-0.112181	0.918340	0.140960	0.352415	-171.644997	-42.757790	14.177283
01785		-0.111598	0.918536	0.141043	0.352057	-171.729612	-42.705861	14.221314
01786		-0.110992	0.918811	0.141213	0.351462	-171.819432	-42.625400	14.278801
01787		-0.110239	0.919197	0.141450	0.350594	-171.930376	-42.509772	14.353343
01788		-0.109508	0.919632	0.141764	0.349555	-172.039906	-42.374393	14.436969
01789		-0.108873	0.920062	0.142164	0.348456	-172.139108	-42.233817	14.527324
01790		-0.108228	0.920493	0.142627	0.347329	-172.242437	-42.090250	14.626775
01791		-0.107628	0.920912	0.143132	0.346194	-172.340892	-41.946615	14.729251
01792		-0.107008	0.921307	0.143618	0.345134	-172.441565	-41.811688	14.829811
01793		-0.106358	0.921660	0.144063	0.344204	-172.545766	-41.691725	14.926015
01794		-0.105677	0.921977	0.144468	0.343394	-172.653280	-41.585483	15.018023
01795		-0.104941	0.922289	0.144855	0.342619	-172.767918	-41.482409	15.110146
01796		-0.104116	0.922613	0.145261	0.341825	-172.895321	-41.375552	15.209196
01797		-0.103240	0.922957	0.145689	0.340979	-173.030073	-41.261732	15.313355
01798		-0.102311	0.923306	0.146118	0.340130	-173.171708	-41.146528	15.420035
01799		-0.101316	0.923649	0.146530	0.339316	-173.321842	-41.034287	15.527306
01800		-0.100322	0.923970	0.146959	0.338554	-173.472988	-40.928246	15.636603
01801		-0.099368	0.924247	0.147418	0.337878	-173.621102	-40.833492	15.748234
01802		-0.098387	0.924503	0.147854	0.337272	-173.772349	-40.746453	15.857773
01803		-0.097308	0.924760	0.148273	0.336697	-173.936701	-40.661091	15.969821
01804		-0.096101	0.925030	0.148711	0.336110	-174.119300	-40.572190	16.090494
01805		-0.094750	0.925337	0.149120	0.335466	-174.319032	-40.473462	16.213453
01806		-0.093362	0.925650	0.149561	0.334794	-174.524589	-40.370681	16.342101
01807		-0.091872	0.925964	0.150001	0.334139	-174.743975	-40.268013	16.475231
01808		-0.090304	0.926278	0.150417	0.333511	-174.972958	-40.166683	16.608358
01809		-0.088661	0.926587	0.150788	0.332923	-175.210029	-40.068502	16.738503
01810		-0.086883	0.926911	0.151105	0.332348	-175.462840	-39.968854	16.867039
01811		-0.084940	0.927244	0.151349	0.331810	-175.734725	-39.870031	16.993106
01812		-0.082821	0.927594	0.151478	0.331307	-176.025228	-39.771501	17.111089
01813		-0.080559	0.927965	0.151498	0.330815	-176.329532	-39.671097	17.219979
01814		-0.078186	0.928358	0.151478	0.330291	-176.645700	-39.564266	17.327526
01815		-0.075760	0.928808	0.151428	0.329614	-176.963778	-39.437873	17.430930
01816		-0.073227	0.929321	0.151350	0.328776	-177.290842	-39.289745	17.532802
01817		-0.070644	0.929868	0.151253	0.327836	-177.620555	-39.128303	17.632032
01818		-0.068071	0.930427	0.151156	0.326838	-177.946503	-38.959932	17.728663
01819		-0.065471	0.931001	0.151027	0.325794	-178.272393	-38.785404	17.820348
01820		-0.062845	0.931584	0.150833	0.324732	-178.597171	-38.607951	17.902534
01821		-0.060263	0.932135	0.150569	0.323762	-178.913621	-38.442343	17.972892
01822		-0.057759	0.932658	0.150243	0.322862	-179.217303	-38.286601	18.030796
01823		-0.055288	0.933164	0.149833	0.322021	-179.512823	-38.138528	18.075180
01824		-0.052853	0.933662	0.149358	0.321206	-179.800445	-37.994338	18.108481
01825		-0.050368	0.934159	0.148764	0.320436	179.910395	-37.854848	18.127417
01826		-0.047772	0.934715	0.148029	0.319551	179.616260	-37.699621	18.129185
01827		-0.045039	0.935314	0.147115	0.318617	179.313932	-37.536428	18.110763
01828		-0.042037	0.935940	0.145895	0.317747	178.988530	-37.376578	18.062134
01829		-0.038947	0.936567	0.144457	0.316951	178.660184	-37.224840	17.987779
01830		-0.035734	0.937168	0.142763	0.316319	178.323277	-37.091557	17.885640
01831		-0.032160	0.937830	0.140713	0.315660	177.955259	-36.950232	17.749336
01832		-0.028216	0.938570	0.138285	0.314908	177.557383	-36.793311	17.575372
01833		-0.024147	0.939351	0.135584	0.314091	177.156813	-36.629031	17.367765
01834		-0.019981	0.940186	0.132689	0.313121	176.755709	-36.447563	17.134708
01835		-0.015720	0.941132	0.129771	0.311742	176.352804	-36.218103	16.894934
01836		-0.011418	0.942205	0.127081	0.309789	175.948177	-35.921215	16.676922
01837		-0.007211	0.943333	0.124724	0.307432	175.551520	-35.578736	16.491519
01838		-0.003118	0.944454	0.122734	0.304851	175.159507	-35.211800	16.345338
01839		0.000665	0.945463	0.121161	0.302358	174.789049	-34.860121	16.242286
01840		0.004146	0.946346	0.119930	0.300049	174.439788	-34.534767	16.174727
01841		0.007498	0.947114	0.118903	0.297962	174.094388	-34.237469	16.131564
01842		0.010598	0.947731	0.118017	0.296252	173.767598	-33.988902	16.103023
01843		0.013422	0.948226	0.117223	0.294866	173.465557	-33.783246	16.080979
01844		0.016268	0.948696	0.116338	0.293558	173.162903	-33.587445	16.048156
01845		0.019253	0.949196	0.115269	0.292181	172.851659	-33.383148	15.993986
01846		0.022465	0.949746	0.113910	0.290693	172.525257	-33.164909	15.907183
01847		0.025828	0.950357	0.112281	0.289046	172.193941	-32.928585	15.786353
01848		0.029310	0.951039	0.110446	0.287171	171.860804	-32.666450	15.637307
01849		0.032768	0.951812	0.108570	0.284944	171.540924	-32.365041	15.473715
01850		0.036009	0.952607	0.106814	0.282549	171.248326	-32.047635	15.313364
01851		0.038973	0.953360	0.105322	0.280165	170.980947	-31.734712	15.176830
01852		0.041580	0.954019	0.104151	0.277976	170.742682	-31.448222	15.072218
01853		0.043930	0.954592	0.103276	0.275967	170.522156	-31.184707	14.999899
01854		0.046124	0.955086	0.102608	0.274143	170.309850	-30.943689	14.952041
01855		0.048425	0.955505	0.101962	0.272522	170.078455	-30.724992	14.914155
01856		0.050848	0.955836	0.101260	0.271179	169.826855	-30.537898	14.878497
01857		0.053165	0.956082	0.100507	0.270146	169.583361	-30.389555	14.838593
01858		0.055399	0.956319	0.099693	0.269158	169.351509	-30.248762	14.788490
01859		0.057706	0.956585	0.098805	0.268052	169.115835	-30.094428	14.728514
01860		0.059974	0.956874	0.097868	0.266865	168.888770	-29.932134	14.658579
01861		0.062183	0.957174	0.096921	0.265628	168.670643	-29.765387	14.583818
01862		0.064389	0.957496	0.096036	0.264259	168.454027	-29.583127	14.513570
01863		0.066545	0.957842	0.095243	0.262753	168.244124	-29.384973	14.449643
01864		0.068476	0.958152	0.094608	0.261354	168.054731	-29.201124	14.400412
01865		0.070232	0.958439	0.094103	0.260015	167.881886	-29.025514	14.362815
01866		0.071941	0.958695	0.093631	0.258768	167.711597	-28.861123	14.329721
01867		0.073574	0.958928	0.093180	0.257608	167.548374	-28.707805	14.298258
01868		0.075178	0.959153	0.092744	0.256460	167.387959	-28.556479	14.267825
01869		0.076805	0.959354	0.092255	0.255400	167.224439	-28.415851	14.232976
01870		0.078279	0.959513	0.091784	0.254526	167.075070	-28.298987	14.199632
01871		0.079676	0.959658	0.091272	0.253727	166.934859	-28.192730	14.160170
01872		0.081060	0.959798	0.090732	0.252951	166.796678	-28.089764	14.117270
01873		0.082328	0.959936	0.090188	0.252213	166.672108	-27.993138	14.070905
01874		0.083527	0.960069	0.089646	0.251503	166.555573	-27.900965	14.023167
01875		0.084629	0.960196	0.089144	0.250830	166.449007	-27.814056	13.978269
01876		0.085600	0.960306	0.088694	0.250238	166.355266	-27.737802	13.937676
01877		0.086577	0.960397	0.088242	0.249711	166.259222	-27.669012	13.898408
01878		0.087501	0.960468	0.087826	0.249262	166.166931	-27.609746	13.863842
01879		0.088420	0.960521	0.087417	0.248877	166.073492	-27.557844	13.831506
01880		0.089324	0.960554	0.087021	0.248565	165.979790	-27.514550	13.801855
01881		0.090189	0.960571	0.086613	0.248331	165.889513	-27.481048	13.771512
01882		0.090940	0.960584	0.086217	0.248144	165.812023	-27.454591	13.740181
01883		0.091640	0.960591	0.085795	0.248006	165.740499	-27.434932	13.705275
01884		0.092266	0.960587	0.085372	0.247933	165.676750	-27.423778	13.669589
01885		0.092842	0.960593	0.084923	0.247850	165.620146	-27.412704	13.628927
01886		0.093352	0.960599	0.084469	0.247790	165.571395	-27.405324	13.586271
01887		0.093785	0.960630	0.084014	0.247660	165.533968	-27.391020	13.539326
01888		0.094210	0.960683	0.083547	0.247451	165.499724	-27.367851	13.488904
01889		0.094678	0.960748	0.083079	0.247179	165.461629	-27.336915	13.438047
01890		0.095162	0.960807	0.082586	0.246929	165.421743	-27.308638	13.385076
01891		0.095645	0.960843	0.082093	0.246768	165.379806	-27.290745	13.334272
01892		0.096194	0.960848	0.081566	0.246709	165.328286	-27.284335	13.283704
01893		0.096754	0.960838	0.081005	0.246712	165.274886	-27.285515	13.230683
01894		0.097375	0.960818	0.080449	0.246727	165.213428	-27.287226	13.180456
01895		0.098064	0.960803	0.079838	0.246712	165.145962	-27.285544	13.124549
01896		0.098780	0.960815	0.079187	0.246588	165.078571	-27.271438	13.062056
01897		0.099489	0.960848	0.078508	0.246393	165.014717	-27.249794	12.994005
01898		0.100007	0.960878	0.077846	0.246277	164.972246	-27.239645	12.924369
01899		0.100411	0.960905	0.077166	0.246220	164.943137	-27.238293	12.850508
01900		0.100762	0.960943	0.076520	0.246130	164.920477	-27.233232	12.778433
01901		0.100955	0.961018	0.075927	0.245941	164.918262	-27.217942	12.705863
01902		0.101078	0.961102	0.075432	0.245714	164.922693	-27.197843	12.642513
01903		0.101175	0.961189	0.075069	0.245446	164.927339	-27.171156	12.593829
01904		0.101301	0.961260	0.074771	0.245207	164.925730	-27.146415	12.554758
01905		0.101527	0.961307	0.074435	0.245030	164.911368	-27.128311	12.515557
01906		0.101699	0.961327	0.074091	0.244987	164.901068	-27.126380	12.476871
01907		0.101711	0.961345	0.073758	0.245010	164.908774	-27.134027	12.436456
01908		0.101887	0.961353	0.073350	0.245027	164.898434	-27.140167	12.391406
01909		0.102014	0.961364	0.072951	0.245054	164.893755	-27.147770	12.346253
01910		0.102041	0.961364	0.072582	0.245150	164.899149	-27.164360	12.303523
01911		0.102180	0.961388	0.072183	0.245117	164.894296	-27.164950	12.257313
01912		0.102292	0.961419	0.071816	0.245057	164.892383	-27.162282	12.213573
01913		0.102357	0.961455	0.071494	0.244982	164.895496	-27.157771	12.173655
01914		0.102345	0.961498	0.071227	0.244896	164.906668	-27.152090	12.138185
01915		0.102293	0.961535	0.071017	0.244834	164.920780	-27.148813	12.108987
01916		0.102240	0.961562	0.070846	0.244799	164.933281	-27.148167	12.085335
01917		0.102170	0.961577	0.070713	0.244807	164.945794	-27.151982	12.066906
01918		0.102106	0.961592	0.070568	0.244819	164.957748	-27.156332	12.047296
01919		0.102172	0.961620	0.070356	0.244739	164.957543	-27.149577	12.020939
01920		0.102214	0.961664	0.070129	0.244616	164.961655	-27.138341	11.991081
01921		0.102209	0.961717	0.069924	0.244466	164.971566	-27.124152	11.961921
01922		0.102161	0.961765	0.069744	0.244349	164.985385	-27.114047	11.935444
