// General information: 
//  MT Manager version: 2022.2.0 
//  XDA version: 2022.2.0 build 7381 rev 124627 built on 2023-07-19
// Device information: 
//  DeviceId: 10B414FF
//  ProductCode: MTW2-3A7G6
//  Firmware Version: 4.14.0
//  Hardware Version: 3.0.0
// Device settings: 
//  Filter Profile: human(46.1)
//  Option Flags: Orientation Smoother Disabled, Position/Velocity Smoother Disabled, Continuous Zero Rotation Update Disabled, AHS Disabled, ICC Disabled
// Coordinate system: ENU
PacketCounter	SampleTimeFine	Quat_q0	Quat_q1	Quat_q2	Quat_q3	Roll	Pitch	Yaw
00370		-0.271335	0.649858	0.050724	-0.708159	-70.512077	63.237342	91.033639
00371		-0.271410	0.650116	0.050794	-0.707888	-70.607393	63.233223	90.937668
00372		-0.271453	0.650359	0.050893	-0.707642	-70.698246	63.228682	90.851450
00373		-0.271454	0.650614	0.051112	-0.707391	-70.801038	63.218035	90.766624
00374		-0.271513	0.650867	0.051291	-0.707122	-70.903020	63.206048	90.674329
00375		-0.271673	0.651090	0.051426	-0.706846	-70.996452	63.188893	90.578097
00376		-0.271846	0.651272	0.051554	-0.706603	-71.076187	63.170187	90.493820
00377		-0.272066	0.651412	0.051636	-0.706382	-71.140869	63.150416	90.416681
00378		-0.272339	0.651481	0.051631	-0.706214	-71.177601	63.131663	90.355834
00379		-0.272628	0.651525	0.051566	-0.706067	-71.201486	63.115990	90.301490
00380		-0.272902	0.651528	0.051479	-0.705964	-71.209615	63.102085	90.262285
00381		-0.273149	0.651563	0.051365	-0.705845	-71.224511	63.093245	90.216582
00382		-0.273425	0.651542	0.051186	-0.705771	-71.217033	63.086023	90.185420
00383		-0.273663	0.651517	0.051020	-0.705714	-71.207464	63.080521	90.160629
00384		-0.273849	0.651470	0.050888	-0.705694	-71.190758	63.075739	90.150294
00385		-0.274019	0.651415	0.050787	-0.705686	-71.173298	63.069424	90.144582
00386		-0.274151	0.651347	0.050708	-0.705703	-71.151173	63.063940	90.148726
00387		-0.274267	0.651302	0.050628	-0.705706	-71.135570	63.060185	90.147632
00388		-0.274408	0.651244	0.050514	-0.705712	-71.114591	63.057198	90.146964
00389		-0.274644	0.651188	0.050333	-0.705685	-71.093480	63.052219	90.132694
00390		-0.274897	0.651104	0.050086	-0.705682	-71.058520	63.050672	90.125318
00391		-0.275236	0.650991	0.049767	-0.705676	-71.012884	63.047463	90.115208
00392		-0.275638	0.650843	0.049384	-0.705683	-70.953653	63.043736	90.108014
00393		-0.275983	0.650727	0.049089	-0.705676	-70.909345	63.038217	90.098088
00394		-0.276153	0.650659	0.048978	-0.705679	-70.886846	63.032318	90.096530
00395		-0.276204	0.650634	0.049018	-0.705680	-70.884442	63.024468	90.097778
00396		-0.276221	0.650610	0.049067	-0.705692	-70.881432	63.018515	90.103219
00397		-0.276256	0.650586	0.049097	-0.705698	-70.877883	63.012832	90.106130
00398		-0.276305	0.650544	0.049037	-0.705722	-70.861757	63.012814	90.113040
00399		-0.276438	0.650485	0.048945	-0.705730	-70.841790	63.008463	90.113805
00400		-0.276592	0.650400	0.048799	-0.705758	-70.809883	63.006267	90.120265
00401		-0.276756	0.650312	0.048670	-0.705784	-70.779030	63.001774	90.126191
00402		-0.276930	0.650228	0.048531	-0.705803	-70.749096	62.997481	90.129442
00403		-0.277093	0.650152	0.048425	-0.705816	-70.723903	62.991537	90.131691
00404		-0.277201	0.650124	0.048425	-0.705800	-70.720500	62.982481	90.125607
00405		-0.277256	0.650115	0.048530	-0.705779	-70.729011	62.969500	90.120825
00406		-0.277252	0.650128	0.048733	-0.705755	-70.749560	62.953746	90.117080
00407		-0.277264	0.650154	0.048938	-0.705713	-70.775276	62.936839	90.107098
00408		-0.277354	0.650159	0.049070	-0.705663	-70.792374	62.919371	90.092822
00409		-0.277474	0.650173	0.049171	-0.705596	-70.811505	62.902344	90.071331
00410		-0.277644	0.650172	0.049188	-0.705528	-70.821661	62.887840	90.047656
00411		-0.277877	0.650152	0.049121	-0.705460	-70.821813	62.874894	90.021640
00412		-0.278140	0.650088	0.048979	-0.705426	-70.802669	62.864587	90.006132
00413		-0.278450	0.650007	0.048787	-0.705391	-70.776668	62.854256	89.989244
00414		-0.278771	0.649905	0.048554	-0.705374	-70.741462	62.845784	89.977255
00415		-0.279031	0.649854	0.048437	-0.705326	-70.728667	62.833972	89.957706
00416		-0.279235	0.649808	0.048406	-0.705291	-70.721627	62.819688	89.944299
00417		-0.279406	0.649799	0.048448	-0.705228	-70.731154	62.802870	89.923189
00418		-0.279564	0.649797	0.048495	-0.705164	-70.742551	62.786914	89.901739
00419		-0.279727	0.649819	0.048548	-0.705075	-70.762508	62.770676	89.871823
00420		-0.279875	0.649841	0.048588	-0.704994	-70.780567	62.756632	89.843980
00421		-0.279999	0.649861	0.048594	-0.704925	-70.794232	62.747145	89.819937
00422		-0.280181	0.649855	0.048564	-0.704861	-70.799073	62.735509	89.796701
00423		-0.280450	0.649795	0.048353	-0.704823	-70.776692	62.730376	89.778258
00424		-0.280840	0.649656	0.047988	-0.704821	-70.722105	62.726549	89.768841
00425		-0.281172	0.649510	0.047701	-0.704843	-70.668487	62.720469	89.769854
00426		-0.281231	0.649458	0.047700	-0.704868	-70.654443	62.714634	89.778526
00427		-0.281107	0.649488	0.047900	-0.704876	-70.673908	62.708676	89.786223
00428		-0.280953	0.649528	0.048172	-0.704882	-70.700951	62.699369	89.794888
00429		-0.280866	0.649575	0.048431	-0.704855	-70.732739	62.686362	89.791840
00430		-0.280851	0.649569	0.048589	-0.704856	-70.742781	62.674462	89.795884
00431		-0.280912	0.649540	0.048705	-0.704850	-70.745926	62.659558	89.796789
00432		-0.280988	0.649488	0.048777	-0.704863	-70.738457	62.646547	89.803404
00433		-0.281013	0.649454	0.048887	-0.704876	-70.737855	62.634759	89.810610
00434		-0.281009	0.649407	0.048994	-0.704914	-70.730738	62.625047	89.826759
00435		-0.281060	0.649334	0.049053	-0.704956	-70.714725	62.614449	89.842991
00436		-0.281047	0.649256	0.049093	-0.705031	-70.691791	62.610075	89.870247
00437		-0.280942	0.649207	0.049259	-0.705106	-70.683961	62.603390	89.900776
00438		-0.280804	0.649126	0.049477	-0.705221	-70.668129	62.594012	89.946312
00439		-0.280634	0.649051	0.049721	-0.705341	-70.654602	62.585236	89.994478
00440		-0.280465	0.648967	0.049945	-0.705469	-70.637066	62.577746	90.044997
00441		-0.280339	0.648883	0.050146	-0.705582	-70.619516	62.568789	90.089855
00442		-0.280226	0.648798	0.050333	-0.705692	-70.601550	62.559972	90.132779
00443		-0.280150	0.648708	0.050471	-0.705795	-70.579628	62.552125	90.172532
00444		-0.280102	0.648597	0.050582	-0.705908	-70.550291	62.543801	90.214928
00445		-0.280077	0.648501	0.050641	-0.706002	-70.522821	62.538315	90.249316
00446		-0.280110	0.648390	0.050593	-0.706094	-70.484849	62.536611	90.280306
00447		-0.280177	0.648254	0.050505	-0.706199	-70.437063	62.534865	90.314952
00448		-0.280213	0.648121	0.050473	-0.706309	-70.393457	62.531054	90.352639
00449		-0.280114	0.648041	0.050644	-0.706410	-70.376355	62.522549	90.392218
00450		-0.279852	0.647998	0.051014	-0.706526	-70.379286	62.511283	90.442311
00451		-0.279581	0.647975	0.051436	-0.706623	-70.392674	62.497198	90.486912
00452		-0.279358	0.647951	0.051831	-0.706706	-70.405695	62.481480	90.525623
00453		-0.279219	0.647920	0.052167	-0.706764	-70.416387	62.464007	90.554295
00454		-0.279229	0.647833	0.052298	-0.706830	-70.399860	62.450203	90.580557
00455		-0.279334	0.647740	0.052311	-0.706872	-70.376524	62.438544	90.595610
00456		-0.279461	0.647640	0.052250	-0.706919	-70.345727	62.431015	90.610208
00457		-0.279558	0.647566	0.052267	-0.706947	-70.328411	62.420147	90.620325
00458		-0.279503	0.647535	0.052443	-0.706984	-70.330328	62.409162	90.637450
00459		-0.279309	0.647564	0.052770	-0.707010	-70.356726	62.398373	90.654704
00460		-0.279083	0.647597	0.053152	-0.707040	-70.387347	62.385510	90.674953
00461		-0.278843	0.647634	0.053475	-0.707077	-70.413405	62.378733	90.696255
00462		-0.278687	0.647624	0.053674	-0.707132	-70.418638	62.374149	90.720900
00463		-0.278602	0.647605	0.053814	-0.707173	-70.419807	62.368817	90.738577
00464		-0.278490	0.647585	0.053910	-0.707228	-70.415541	62.368985	90.760361
00465		-0.278354	0.647587	0.054045	-0.707269	-70.420572	62.368523	90.778342
00466		-0.278116	0.647615	0.054271	-0.707319	-70.436039	62.369203	90.802095
00467		-0.277810	0.647670	0.054573	-0.707366	-70.462977	62.369646	90.826549
00468		-0.277573	0.647729	0.054829	-0.707386	-70.490923	62.368660	90.840270
00469		-0.277399	0.647757	0.055021	-0.707413	-70.507064	62.367143	90.855011
00470		-0.277289	0.647761	0.055113	-0.707445	-70.510344	62.368222	90.868900
00471		-0.277253	0.647722	0.055077	-0.707498	-70.492950	62.372848	90.886482
00472		-0.277249	0.647676	0.054971	-0.707550	-70.469044	62.380455	90.902045
00473		-0.277202	0.647671	0.054889	-0.707579	-70.458262	62.390533	90.910236
00474		-0.277088	0.647671	0.054844	-0.707628	-70.448538	62.402756	90.926319
00475		-0.276971	0.647671	0.054817	-0.707676	-70.440156	62.413880	90.942791
00476		-0.276802	0.647648	0.054781	-0.707766	-70.420889	62.429090	90.973880
00477		-0.276596	0.647653	0.054831	-0.707838	-70.416065	62.440898	91.000864
00478		-0.276351	0.647644	0.054922	-0.707934	-70.408265	62.451966	91.037461
00479		-0.276128	0.647640	0.055033	-0.708017	-70.404568	62.459891	91.069749
00480		-0.275919	0.647631	0.055141	-0.708098	-70.399881	62.466729	91.101489
00481		-0.275704	0.647638	0.055295	-0.708163	-70.403887	62.470905	91.128882
00482		-0.275505	0.647635	0.055441	-0.708231	-70.405132	62.474135	91.156870
00483		-0.275326	0.647641	0.055613	-0.708282	-70.412269	62.474070	91.179389
00484		-0.275172	0.647643	0.055786	-0.708327	-70.419450	62.471912	91.199720
00485		-0.275065	0.647641	0.055976	-0.708356	-70.429125	62.464685	91.214875
00486		-0.275044	0.647630	0.056091	-0.708364	-70.434289	62.456602	91.220899
00487		-0.275055	0.647634	0.056176	-0.708350	-70.443372	62.449028	91.217701
00488		-0.275111	0.647622	0.056216	-0.708336	-70.445758	62.441170	91.213683
00489		-0.275189	0.647595	0.056236	-0.708329	-70.442871	62.432834	91.211385
00490		-0.275228	0.647572	0.056275	-0.708331	-70.440879	62.426049	91.213144
00491		-0.275282	0.647538	0.056349	-0.708336	-70.438915	62.414923	91.216263
00492		-0.275370	0.647474	0.056385	-0.708357	-70.426145	62.403499	91.224177
00493		-0.275490	0.647396	0.056404	-0.708380	-70.409037	62.390544	91.232256
00494		-0.275569	0.647315	0.056441	-0.708420	-70.390318	62.379211	91.246984
00495		-0.275591	0.647267	0.056592	-0.708444	-70.388897	62.363962	91.258752
00496		-0.275531	0.647228	0.056799	-0.708486	-70.390671	62.350648	91.278963
00497		-0.275458	0.647217	0.057005	-0.708508	-70.400812	62.339270	91.291985
00498		-0.275388	0.647199	0.057159	-0.708539	-70.404805	62.331605	91.306644
00499		-0.275361	0.647193	0.057297	-0.708544	-70.412974	62.322277	91.312016
00500		-0.275340	0.647180	0.057367	-0.708558	-70.413801	62.317909	91.318771
00501		-0.275385	0.647162	0.057338	-0.708560	-70.407850	62.316280	91.318298
00502		-0.275521	0.647126	0.057240	-0.708547	-70.395160	62.312740	91.311117
00503		-0.275746	0.647062	0.057038	-0.708535	-70.369001	62.310194	91.301090
00504		-0.275999	0.646984	0.056825	-0.708524	-70.339407	62.305791	91.291092
00505		-0.276219	0.646918	0.056688	-0.708511	-70.317969	62.298290	91.282083
00506		-0.276336	0.646889	0.056646	-0.708494	-70.311413	62.291851	91.274945
00507		-0.276375	0.646893	0.056712	-0.708470	-70.320132	62.283685	91.268086
00508		-0.276330	0.646937	0.056795	-0.708441	-70.338826	62.281723	91.260223
00509		-0.276314	0.646990	0.056890	-0.708391	-70.363034	62.276724	91.245213
00510		-0.276296	0.647015	0.056931	-0.708373	-70.373391	62.275563	91.239778
00511		-0.276295	0.647039	0.056917	-0.708351	-70.380086	62.277438	91.232013
00512		-0.276282	0.647066	0.056892	-0.708334	-70.385709	62.281270	91.225557
00513		-0.276263	0.647097	0.056872	-0.708315	-70.393060	62.285203	91.218267
00514		-0.276290	0.647094	0.056768	-0.708316	-70.384607	62.291467	91.215937
00515		-0.276353	0.647060	0.056602	-0.708335	-70.363192	62.299099	91.218338
00516		-0.276430	0.646986	0.056431	-0.708386	-70.329119	62.304905	91.231660
00517		-0.276472	0.646930	0.056369	-0.708426	-70.307954	62.305107	91.244000
00518		-0.276489	0.646881	0.056343	-0.708466	-70.290931	62.304485	91.257298
00519		-0.276501	0.646825	0.056377	-0.708510	-70.276687	62.299181	91.273201
00520		-0.276521	0.646779	0.056441	-0.708539	-70.268380	62.291154	91.284998
00521		-0.276527	0.646750	0.056543	-0.708555	-70.268213	62.281644	91.292876
00522		-0.276511	0.646747	0.056627	-0.708557	-70.273610	62.276004	91.295714
00523		-0.276521	0.646745	0.056676	-0.708552	-70.277466	62.271137	91.294921
00524		-0.276549	0.646737	0.056645	-0.708550	-70.273934	62.271317	91.293523
00525		-0.276680	0.646724	0.056594	-0.708515	-70.272223	62.265165	91.279587
00526		-0.276780	0.646714	0.056537	-0.708489	-70.269441	62.261828	91.268927
00527		-0.276853	0.646703	0.056584	-0.708467	-70.273641	62.252082	91.262152
00528		-0.276822	0.646722	0.056743	-0.708450	-70.291508	62.242140	91.259993
00529		-0.276767	0.646753	0.056964	-0.708425	-70.317140	62.229394	91.257154
00530		-0.276729	0.646773	0.057132	-0.708408	-70.335980	62.219301	91.255361
00531		-0.276749	0.646784	0.057253	-0.708380	-70.350691	62.208278	91.248702
00532		-0.276767	0.646784	0.057298	-0.708369	-70.355457	62.203243	91.246022
00533		-0.276833	0.646814	0.057301	-0.708316	-70.368734	62.198915	91.227290
00534		-0.276889	0.646825	0.057293	-0.708285	-70.374268	62.195658	91.216176
00535		-0.276993	0.646855	0.057280	-0.708218	-70.388283	62.189595	91.192089
00536		-0.277147	0.646849	0.057208	-0.708169	-70.387994	62.183508	91.173000
00537		-0.277320	0.646833	0.057166	-0.708119	-70.388292	62.173267	91.153991
00538		-0.277421	0.646837	0.057222	-0.708071	-70.399650	62.161097	91.138393
00539		-0.277415	0.646886	0.057410	-0.708014	-70.430679	62.147747	91.123247
00540		-0.277300	0.646961	0.057652	-0.707970	-70.469050	62.139083	91.114715
00541		-0.277215	0.647021	0.057893	-0.707929	-70.504012	62.127807	91.106846
00542		-0.277189	0.647078	0.058006	-0.707879	-70.530069	62.122306	91.092392
00543		-0.277195	0.647120	0.058069	-0.707832	-70.549227	62.117943	91.077754
00544		-0.277223	0.647131	0.058078	-0.707810	-70.554945	62.115371	91.070452
00545		-0.277293	0.647140	0.058065	-0.707776	-70.560169	62.111404	91.057985
00546		-0.277358	0.647156	0.058048	-0.707737	-70.567223	62.108219	91.043927
00547		-0.277429	0.647172	0.058052	-0.707694	-70.576214	62.102990	91.029015
00548		-0.277490	0.647186	0.058023	-0.707660	-70.581306	62.101010	91.016188
00549		-0.277509	0.647199	0.058025	-0.707640	-70.586594	62.099762	91.009481
00550		-0.277502	0.647195	0.058067	-0.707643	-70.588589	62.096782	91.011503
00551		-0.277436	0.647229	0.058149	-0.707632	-70.602599	62.096141	91.009974
00552		-0.277326	0.647251	0.058265	-0.707645	-70.613978	62.095772	91.017669
00553		-0.277172	0.647285	0.058435	-0.707661	-70.631010	62.094755	91.027992
00554		-0.277036	0.647303	0.058564	-0.707686	-70.640843	62.095206	91.040600
00555		-0.276977	0.647298	0.058617	-0.707710	-70.640765	62.095294	91.050155
00556		-0.277004	0.647267	0.058589	-0.707730	-70.629752	62.094594	91.056572
00557		-0.277086	0.647259	0.058566	-0.707707	-70.629696	62.089949	91.047528
00558		-0.277205	0.647237	0.058481	-0.707688	-70.621330	62.087122	91.038505
00559		-0.277312	0.647219	0.058410	-0.707668	-70.615340	62.084266	91.029340
00560		-0.277367	0.647199	0.058370	-0.707668	-70.608425	62.082684	91.028207
00561		-0.277386	0.647183	0.058371	-0.707675	-70.604298	62.080693	91.030605
00562		-0.277357	0.647159	0.058398	-0.707706	-70.597478	62.080073	91.042190
00563		-0.277283	0.647157	0.058486	-0.707730	-70.600399	62.078551	91.052908
00564		-0.277204	0.647121	0.058579	-0.707786	-70.593020	62.075972	91.074772
00565		-0.277139	0.647108	0.058680	-0.707815	-70.593947	62.072429	91.087697
00566		-0.277074	0.647081	0.058762	-0.707859	-70.588920	62.069976	91.105079
00567		-0.277044	0.647082	0.058815	-0.707864	-70.592389	62.068024	91.108491
00568		-0.277051	0.647085	0.058738	-0.707866	-70.586971	62.073804	91.107134
00569		-0.277122	0.647087	0.058612	-0.707846	-70.580670	62.078632	91.096881
00570		-0.277180	0.647084	0.058457	-0.707839	-70.569705	62.086670	91.090168
00571		-0.277204	0.647098	0.058331	-0.707827	-70.564768	62.095453	91.082815
00572		-0.277184	0.647108	0.058274	-0.707831	-70.562133	62.101864	91.082596
00573		-0.277100	0.647116	0.058240	-0.707859	-70.557611	62.111244	91.091735
00574		-0.276992	0.647108	0.058231	-0.707909	-70.548760	62.120009	91.109259
00575		-0.276888	0.647105	0.058229	-0.707953	-70.542271	62.127935	91.124679
00576		-0.276818	0.647090	0.058187	-0.707997	-70.530409	62.136269	91.139241
00577		-0.276761	0.647090	0.058134	-0.708024	-70.523082	62.144999	91.147275
00578		-0.276742	0.647101	0.058060	-0.708028	-70.519255	62.152657	91.146806
00579		-0.276722	0.647118	0.057988	-0.708026	-70.517574	62.160579	91.144342
00580		-0.276659	0.647150	0.057946	-0.708025	-70.520898	62.169577	91.143144
00581		-0.276516	0.647205	0.058009	-0.708025	-70.536500	62.177107	91.145268
00582		-0.276306	0.647266	0.058110	-0.708043	-70.553759	62.186636	91.154744
00583		-0.276132	0.647310	0.058200	-0.708063	-70.566471	62.193861	91.164608
00584		-0.275990	0.647341	0.058221	-0.708089	-70.570643	62.203877	91.174654
00585		-0.275943	0.647342	0.058155	-0.708112	-70.563001	62.212799	91.180972
00586		-0.275978	0.647294	0.057989	-0.708155	-70.535612	62.222310	91.191765
00587		-0.276092	0.647238	0.057765	-0.708180	-70.504763	62.230068	91.194382
00588		-0.276213	0.647178	0.057520	-0.708208	-70.471159	62.238912	91.197400
00589		-0.276296	0.647121	0.057348	-0.708241	-70.442637	62.244915	91.204524
00590		-0.276305	0.647091	0.057326	-0.708267	-70.431588	62.245104	91.212926
00591		-0.276214	0.647090	0.057418	-0.708296	-70.434457	62.244609	91.225583
00592		-0.276085	0.647103	0.057611	-0.708319	-70.448197	62.239153	91.238806
00593		-0.275932	0.647114	0.057857	-0.708348	-70.464936	62.231227	91.255500
00594		-0.275814	0.647098	0.058068	-0.708392	-70.471519	62.222721	91.276415
00595		-0.275757	0.647066	0.058209	-0.708431	-70.470514	62.214704	91.293839
00596		-0.275734	0.647006	0.058269	-0.708491	-70.455114	62.209843	91.316059
00597		-0.275727	0.646932	0.058345	-0.708554	-70.437795	62.202192	91.340072
00598		-0.275716	0.646866	0.058358	-0.708618	-70.417270	62.200079	91.362563
00599		-0.275713	0.646849	0.058428	-0.708629	-70.417589	62.194117	91.368202
00600		-0.275675	0.646838	0.058487	-0.708649	-70.417254	62.191915	91.376633
00601		-0.275662	0.646814	0.058520	-0.708673	-70.411651	62.189573	91.385988
00602		-0.275642	0.646785	0.058578	-0.708703	-70.406359	62.185522	91.397685
00603		-0.275624	0.646759	0.058675	-0.708725	-70.405483	62.178234	91.408066
00604		-0.275586	0.646712	0.058731	-0.708779	-70.393291	62.175329	91.428136
00605		-0.275577	0.646649	0.058768	-0.708837	-70.375957	62.171206	91.449113
00606		-0.275587	0.646560	0.058758	-0.708914	-70.347541	62.168585	91.475729
00607		-0.275589	0.646479	0.058757	-0.708987	-70.321949	62.166147	91.501004
00608		-0.275511	0.646419	0.058776	-0.709071	-70.300297	62.168851	91.530966
00609		-0.275346	0.646385	0.058918	-0.709154	-70.293458	62.168846	91.563769
00610		-0.275127	0.646378	0.059129	-0.709228	-70.297766	62.168241	91.595754
00611		-0.274950	0.646367	0.059314	-0.709291	-70.300997	62.166498	91.623059
00612		-0.274846	0.646339	0.059410	-0.709349	-70.295165	62.165806	91.645837
00613		-0.274821	0.646290	0.059442	-0.709401	-70.280987	62.163697	91.664684
00614		-0.274860	0.646218	0.059393	-0.709455	-70.256124	62.162539	91.682052
00615		-0.274887	0.646127	0.059282	-0.709537	-70.219023	62.166823	91.707663
00616		-0.274874	0.646052	0.059170	-0.709620	-70.184829	62.174582	91.733776
00617		-0.274831	0.645965	0.059034	-0.709727	-70.143349	62.186182	91.767883
00618		-0.274825	0.645844	0.058814	-0.709858	-70.085695	62.200818	91.808028
00619		-0.274883	0.645685	0.058522	-0.710004	-70.013271	62.215187	91.851441
00620		-0.274950	0.645521	0.058267	-0.710148	-69.942651	62.225628	91.895198
00621		-0.274932	0.645402	0.058176	-0.710271	-69.896209	62.230702	91.935771
00622		-0.274828	0.645338	0.058253	-0.710362	-69.877264	62.230467	91.969997
00623		-0.274725	0.645343	0.058375	-0.710388	-69.883840	62.228602	91.982328
00624		-0.274673	0.645330	0.058479	-0.710411	-69.886156	62.223717	91.993037
00625		-0.274679	0.645318	0.058541	-0.710415	-69.887971	62.217930	91.995752
00626		-0.274740	0.645279	0.058514	-0.710429	-69.876370	62.214247	91.999672
00627		-0.274817	0.645243	0.058435	-0.710438	-69.862240	62.213742	92.000647
00628		-0.274843	0.645211	0.058407	-0.710459	-69.851197	62.212988	92.007091
00629		-0.274834	0.645183	0.058418	-0.710488	-69.842542	62.212015	92.017405
00630		-0.274767	0.645142	0.058447	-0.710548	-69.828719	62.213378	92.039397
00631		-0.274706	0.645105	0.058468	-0.710604	-69.815510	62.215244	92.059597
00632		-0.274704	0.645049	0.058445	-0.710657	-69.795938	62.215515	92.077452
00633		-0.274732	0.644991	0.058471	-0.710697	-69.781111	62.209553	92.091877
00634		-0.274764	0.644941	0.058517	-0.710726	-69.771000	62.201815	92.102808
00635		-0.274818	0.644905	0.058571	-0.710734	-69.767146	62.192318	92.106312
00636		-0.274936	0.644872	0.058603	-0.710715	-69.765815	62.179776	92.099841
00637		-0.275043	0.644845	0.058630	-0.710696	-69.765261	62.168687	92.093273
00638		-0.275136	0.644832	0.058672	-0.710668	-69.769832	62.157866	92.083931
00639		-0.275173	0.644833	0.058689	-0.710652	-69.773440	62.153759	92.078435
00640		-0.275187	0.644824	0.058704	-0.710654	-69.772539	62.151240	92.079336
00641		-0.275236	0.644777	0.058665	-0.710680	-69.756913	62.149162	92.087439
00642		-0.275302	0.644691	0.058562	-0.710742	-69.724288	62.149850	92.105826
00643		-0.275323	0.644603	0.058549	-0.710814	-69.696677	62.146637	92.130414
00644		-0.275273	0.644550	0.058628	-0.710875	-69.684193	62.142341	92.153626
00645		-0.275243	0.644499	0.058724	-0.710925	-69.674758	62.135264	92.173438
00646		-0.275247	0.644455	0.058823	-0.710955	-69.669890	62.125689	92.185928
00647		-0.275322	0.644420	0.058867	-0.710954	-69.666696	62.115328	92.186120
00648		-0.275475	0.644372	0.058820	-0.710942	-69.655415	62.106079	92.180082
00649		-0.275660	0.644331	0.058750	-0.710913	-69.646272	62.096529	92.167347
00650		-0.275833	0.644283	0.058648	-0.710898	-69.631349	62.090112	92.158670
00651		-0.276060	0.644208	0.058493	-0.710891	-69.606324	62.083083	92.151146
00652		-0.276254	0.644111	0.058326	-0.710917	-69.571595	62.078909	92.155209
00653		-0.276347	0.644050	0.058289	-0.710939	-69.554025	62.072999	92.161562
00654		-0.276362	0.644013	0.058347	-0.710962	-69.548323	62.065996	92.170580
00655		-0.276349	0.643965	0.058410	-0.711005	-69.538171	62.060365	92.186949
00656		-0.276350	0.643931	0.058441	-0.711033	-69.530030	62.056733	92.197466
00657		-0.276392	0.643904	0.058452	-0.711040	-69.524847	62.051809	92.199843
00658		-0.276453	0.643881	0.058420	-0.711040	-69.518207	62.049107	92.198534
00659		-0.276572	0.643835	0.058315	-0.711044	-69.500893	62.047149	92.196787
00660		-0.276719	0.643780	0.058118	-0.711053	-69.474296	62.050139	92.194447
00661		-0.276910	0.643729	0.057896	-0.711043	-69.448975	62.052029	92.184938
00662		-0.277058	0.643662	0.057677	-0.711063	-69.416798	62.056434	92.186171
00663		-0.277131	0.643634	0.057529	-0.711073	-69.398940	62.061963	92.185598
00664		-0.277122	0.643627	0.057480	-0.711086	-69.392148	62.066349	92.189166
00665		-0.277063	0.643645	0.057527	-0.711089	-69.398701	62.067600	92.191672
00666		-0.276959	0.643671	0.057623	-0.711098	-69.409659	62.068569	92.197644
00667		-0.276889	0.643690	0.057728	-0.711100	-69.420863	62.065942	92.201189
00668		-0.276826	0.643723	0.057810	-0.711088	-69.435187	62.065125	92.199113
00669		-0.276800	0.643756	0.057841	-0.711066	-69.446832	62.065631	92.192323
00670		-0.276823	0.643770	0.057828	-0.711045	-69.451196	62.065432	92.184842
00671		-0.276846	0.643803	0.057832	-0.711006	-69.463215	62.064323	92.171147
00672		-0.276860	0.643847	0.057846	-0.710959	-69.479043	62.063548	92.155291
00673		-0.276871	0.643891	0.057885	-0.710912	-69.496969	62.060934	92.139607
00674		-0.276915	0.643912	0.057851	-0.710879	-69.502683	62.061025	92.127306
00675		-0.276947	0.643932	0.057823	-0.710851	-69.508352	62.061444	92.116596
00676		-0.277000	0.643940	0.057802	-0.710824	-69.511945	62.059413	92.106697
00677		-0.277054	0.643950	0.057759	-0.710798	-69.514068	62.059131	92.096346
00678		-0.277135	0.643939	0.057679	-0.710782	-69.508112	62.059109	92.088626
00679		-0.277260	0.643951	0.057614	-0.710728	-69.512821	62.055292	92.067729
00680		-0.277367	0.643957	0.057589	-0.710683	-69.518424	62.049395	92.050709
00681		-0.277444	0.643971	0.057626	-0.710637	-69.529954	62.040998	92.035458
00682		-0.277484	0.643984	0.057669	-0.710606	-69.539956	62.034987	92.025458
00683		-0.277493	0.644009	0.057762	-0.710573	-69.556384	62.027592	92.015923
00684		-0.277494	0.644012	0.057858	-0.710562	-69.565674	62.019802	92.014308
00685		-0.277540	0.643981	0.057847	-0.710573	-69.557346	62.016307	92.017706
00686		-0.277602	0.643948	0.057837	-0.710579	-69.549561	62.011348	92.019159
00687		-0.277673	0.643915	0.057795	-0.710585	-69.539271	62.008333	92.019762
00688		-0.277807	0.643866	0.057724	-0.710583	-69.524734	62.002459	92.016724
00689		-0.277935	0.643813	0.057667	-0.710585	-69.510048	61.995819	92.015478
00690		-0.278021	0.643778	0.057704	-0.710580	-69.506910	61.985207	92.014060
00691		-0.278036	0.643767	0.057830	-0.710574	-69.514998	61.973569	92.014852
00692		-0.278025	0.643763	0.057983	-0.710570	-69.526364	61.961966	92.016913
00693		-0.277997	0.643762	0.058179	-0.710566	-69.541642	61.948171	92.020047
00694		-0.277940	0.643777	0.058335	-0.710561	-69.556890	61.940369	92.022477
00695		-0.277879	0.643772	0.058508	-0.710576	-69.567012	61.930928	92.031858
00696		-0.277803	0.643776	0.058679	-0.710588	-69.579140	61.922948	92.040243
00697		-0.277735	0.643767	0.058889	-0.710605	-69.590981	61.911033	92.051435
00698		-0.277626	0.643746	0.059130	-0.710647	-69.599522	61.899130	92.072068
00699		-0.277490	0.643744	0.059390	-0.710680	-69.614394	61.888376	92.090235
00700		-0.277340	0.643750	0.059603	-0.710715	-69.626945	61.882706	92.108139
00701		-0.277279	0.643739	0.059742	-0.710738	-69.632262	61.875811	92.119537
00702		-0.277230	0.643733	0.059786	-0.710759	-69.631588	61.875790	92.128101
00703		-0.277213	0.643711	0.059760	-0.710787	-69.621575	61.878450	92.137350
00704		-0.277196	0.643680	0.059678	-0.710828	-69.604005	61.885436	92.149735
00705		-0.277189	0.643633	0.059597	-0.710880	-69.581822	61.891039	92.165825
00706		-0.277126	0.643611	0.059572	-0.710927	-69.569422	61.897081	92.181799
00707		-0.277024	0.643602	0.059607	-0.710973	-69.564236	61.901691	92.198773
00708		-0.276917	0.643584	0.059681	-0.711024	-69.559660	61.903231	92.218675
00709		-0.276796	0.643595	0.059780	-0.711053	-69.565135	61.904766	92.231815
00710		-0.276701	0.643620	0.059833	-0.711063	-69.572647	61.908389	92.236995
00711		-0.276633	0.643643	0.059833	-0.711069	-69.576071	61.914362	92.239560
00712		-0.276576	0.643666	0.059826	-0.711070	-69.579949	61.919907	92.240144
00713		-0.276556	0.643690	0.059814	-0.711057	-69.585141	61.923114	92.235703
00714		-0.276519	0.643714	0.059831	-0.711049	-69.592232	61.925336	92.233308
00715		-0.276453	0.643752	0.059910	-0.711033	-69.607570	61.925113	92.230275
00716		-0.276423	0.643769	0.059929	-0.711027	-69.613109	61.926350	92.228902
00717		-0.276423	0.643769	0.059927	-0.711027	-69.612928	61.926586	92.228898
00718		-0.276396	0.643776	0.059906	-0.711034	-69.611716	61.930458	92.230827
00719		-0.276397	0.643777	0.059887	-0.711034	-69.610398	61.931934	92.230518
00720		-0.276360	0.643795	0.059870	-0.711034	-69.612513	61.936688	92.230285
00721		-0.276288	0.643840	0.059915	-0.711017	-69.626958	61.939917	92.225777
00722		-0.276206	0.643892	0.060014	-0.710994	-69.647329	61.939750	92.220788
00723		-0.276141	0.643943	0.060145	-0.710962	-69.671401	61.935750	92.213118
00724		-0.276110	0.643997	0.060246	-0.710916	-69.695542	61.931595	92.199890
00725		-0.276130	0.644035	0.060332	-0.710867	-69.715895	61.924336	92.184928
00726		-0.276165	0.644068	0.060330	-0.710823	-69.728105	61.922845	92.169478
00727		-0.276227	0.644059	0.060281	-0.710812	-69.723991	61.921855	92.164184
00728		-0.276229	0.644066	0.060288	-0.710804	-69.726987	61.921356	92.161536
00729		-0.276143	0.644110	0.060394	-0.710789	-69.745315	61.920724	92.159469
00730		-0.276001	0.644161	0.060546	-0.710784	-69.767304	61.920735	92.162297
00731		-0.275869	0.644201	0.060703	-0.710786	-69.786497	61.919360	92.167551
00732		-0.275804	0.644199	0.060843	-0.710801	-69.794607	61.912928	92.176527
00733		-0.275770	0.644191	0.060890	-0.710818	-69.794403	61.911457	92.183567
00734		-0.275759	0.644172	0.060913	-0.710836	-69.790176	61.909862	92.190521
00735		-0.275770	0.644180	0.060931	-0.710824	-69.794689	61.907801	92.186540
00736		-0.275796	0.644177	0.060906	-0.710819	-69.792937	61.907843	92.183983
00737		-0.275849	0.644162	0.060848	-0.710817	-69.785752	61.908001	92.181787
00738		-0.275841	0.644144	0.060838	-0.710837	-69.779111	61.908876	92.188264
00739		-0.275836	0.644112	0.060836	-0.710868	-69.768705	61.908299	92.198930
00740		-0.275762	0.644102	0.060877	-0.710902	-69.765248	61.910343	92.212187
00741		-0.275655	0.644085	0.060943	-0.710954	-69.759910	61.912622	92.232248
00742		-0.275557	0.644061	0.061002	-0.711008	-69.752552	61.914453	92.252946
00743		-0.275448	0.644048	0.061072	-0.711056	-69.748814	61.916703	92.271990
00744		-0.275360	0.644023	0.061090	-0.711111	-69.738037	61.921150	92.291874
00745		-0.275307	0.644008	0.061078	-0.711146	-69.729613	61.925621	92.303958
00746		-0.275235	0.643999	0.061086	-0.711182	-69.723718	61.930135	92.316759
00747		-0.275184	0.643986	0.061104	-0.711212	-69.718388	61.932163	92.328011
00748		-0.275117	0.643981	0.061153	-0.711238	-69.717684	61.933062	92.338542
00749		-0.274997	0.643991	0.061234	-0.711268	-69.721630	61.935979	92.351709
00750		-0.274878	0.643990	0.061316	-0.711309	-69.722111	61.938349	92.368333
00751		-0.274748	0.643963	0.061356	-0.711379	-69.710683	61.944086	92.394306
00752		-0.274601	0.643932	0.061409	-0.711460	-69.697718	61.950019	92.424431
00753		-0.274428	0.643904	0.061513	-0.711543	-69.689073	61.953753	92.456666
00754		-0.274232	0.643903	0.061670	-0.711605	-69.692350	61.955998	92.483306
00755		-0.274043	0.643909	0.061871	-0.711656	-69.701800	61.954203	92.506843
00756		-0.273873	0.643914	0.062060	-0.711700	-69.711071	61.951993	92.527755
00757		-0.273802	0.643896	0.062188	-0.711732	-69.713208	61.946471	92.542202
00758		-0.273764	0.643861	0.062233	-0.711774	-69.704292	61.944618	92.558088
00759		-0.273724	0.643814	0.062279	-0.711829	-69.691359	61.942492	92.578177
00760		-0.273661	0.643775	0.062321	-0.711884	-69.679650	61.942687	92.598767
00761		-0.273601	0.643738	0.062351	-0.711938	-69.667646	61.943639	92.618393
00762		-0.273542	0.643691	0.062382	-0.712001	-69.652387	61.944031	92.641266
00763		-0.273472	0.643636	0.062429	-0.712073	-69.635757	61.943833	92.667763
00764		-0.273387	0.643585	0.062534	-0.712143	-69.624576	61.940164	92.694989
00765		-0.273268	0.643525	0.062665	-0.712231	-69.611288	61.936750	92.729244
00766		-0.273163	0.643485	0.062754	-0.712300	-69.601197	61.936246	92.755695
00767		-0.273066	0.643444	0.062792	-0.712371	-69.586665	61.939111	92.781699
00768		-0.273074	0.643400	0.062734	-0.712413	-69.568135	61.941781	92.794816
00769		-0.273152	0.643368	0.062593	-0.712424	-69.549911	61.946228	92.794697
00770		-0.273247	0.643341	0.062444	-0.712425	-69.533241	61.950175	92.790842
00771		-0.273348	0.643318	0.062310	-0.712418	-69.519560	61.952595	92.784725
00772		-0.273466	0.643270	0.062183	-0.712428	-69.499479	61.952352	92.784141
00773		-0.273522	0.643210	0.062171	-0.712462	-69.482525	61.947122	92.795188
00774		-0.273448	0.643177	0.062244	-0.712513	-69.474798	61.945830	92.815213
00775		-0.273339	0.643142	0.062391	-0.712574	-69.471077	61.941112	92.840389
00776		-0.273227	0.643098	0.062516	-0.712646	-69.462654	61.938092	92.868769
00777		-0.273124	0.643071	0.062615	-0.712700	-69.457780	61.936998	92.890716
00778		-0.273074	0.643034	0.062628	-0.712752	-69.444620	61.938586	92.909256
00779		-0.273111	0.642984	0.062538	-0.712791	-69.422994	61.941400	92.920218
00780		-0.273177	0.642939	0.062382	-0.712820	-69.398370	61.947491	92.926369
00781		-0.273237	0.642915	0.062280	-0.712828	-69.385014	61.950383	92.926100
00782		-0.273230	0.642933	0.062228	-0.712819	-69.385635	61.955652	92.921912
00783		-0.273186	0.642953	0.062241	-0.712816	-69.390868	61.958594	92.921584
00784		-0.273112	0.642974	0.062312	-0.712819	-69.399787	61.959059	92.924942
00785		-0.272980	0.643006	0.062418	-0.712832	-69.412203	61.961630	92.932761
00786		-0.272838	0.643015	0.062515	-0.712869	-69.416131	61.964732	92.949126
00787		-0.272727	0.643018	0.062534	-0.712908	-69.412753	61.971706	92.963804
00788		-0.272644	0.643000	0.062459	-0.712962	-69.396218	61.983405	92.981373
00789		-0.272546	0.642986	0.062392	-0.713018	-69.380606	61.995631	93.000096
00790		-0.272462	0.642991	0.062301	-0.713054	-69.369472	62.009443	93.011198
00791		-0.272373	0.643006	0.062240	-0.713079	-69.363949	62.021520	93.019477
00792		-0.272252	0.643044	0.062285	-0.713088	-69.373413	62.028242	93.024328
00793		-0.272112	0.643107	0.062401	-0.713074	-69.396121	62.031516	93.023485
00794		-0.271997	0.643168	0.062513	-0.713053	-69.419004	62.033216	93.019777
00795		-0.271902	0.643218	0.062598	-0.713037	-69.437174	62.035050	93.016918
00796		-0.271867	0.643244	0.062644	-0.713023	-69.447489	62.034891	93.013476
00797		-0.271862	0.643252	0.062634	-0.713018	-69.449052	62.036352	93.011482
00798		-0.271878	0.643248	0.062543	-0.713023	-69.440573	62.042279	93.011179
00799		-0.271886	0.643234	0.062446	-0.713042	-69.427775	62.049021	93.015343
00800		-0.271860	0.643229	0.062403	-0.713060	-69.420904	62.054262	93.020912
00801		-0.271784	0.643259	0.062443	-0.713059	-69.429825	62.057816	93.021990
00802		-0.271643	0.643286	0.062564	-0.713077	-69.441863	62.059509	93.032168
00803		-0.271486	0.643328	0.062717	-0.713085	-69.460241	62.060407	93.040003
00804		-0.271369	0.643352	0.062841	-0.713098	-69.472546	62.060114	93.048079
00805		-0.271262	0.643371	0.062953	-0.713111	-69.482929	62.059717	93.056178
00806		-0.271201	0.643382	0.063051	-0.713116	-69.491773	62.056897	93.060632
00807		-0.271201	0.643406	0.063088	-0.713090	-69.502820	62.054601	93.052641
00808		-0.271229	0.643418	0.063099	-0.713069	-69.508684	62.052051	93.045227
00809		-0.271297	0.643429	0.063053	-0.713037	-69.511701	62.051003	93.032526
00810		-0.271347	0.643423	0.063013	-0.713027	-69.509006	62.050244	93.027643
00811		-0.271345	0.643434	0.063018	-0.713017	-69.512724	62.050340	93.024436
00812		-0.271263	0.643456	0.063114	-0.713020	-69.523860	62.049463	93.028356
00813		-0.271158	0.643488	0.063263	-0.713017	-69.541780	62.046466	93.031727
00814		-0.271055	0.643510	0.063414	-0.713024	-69.556569	62.042824	93.038273
00815		-0.271002	0.643532	0.063513	-0.713015	-69.569540	62.039592	93.037996
00816		-0.271028	0.643524	0.063515	-0.713013	-69.568486	62.037243	93.037013
00817		-0.271089	0.643508	0.063491	-0.713006	-69.564606	62.034021	93.033632
00818		-0.271094	0.643505	0.063504	-0.713005	-69.565298	62.032486	93.033474
00819		-0.271016	0.643536	0.063605	-0.712998	-69.579725	62.031231	93.034098
00820		-0.270867	0.643563	0.063707	-0.713021	-69.589496	62.035227	93.045685
00821		-0.270810	0.643576	0.063775	-0.713025	-69.596501	62.034459	93.049285
00822		-0.270772	0.643552	0.063765	-0.713062	-69.586185	62.037317	93.062040
00823		-0.270770	0.643531	0.063721	-0.713085	-69.575763	62.040326	93.068976
00824		-0.270796	0.643504	0.063637	-0.713108	-69.560862	62.044264	93.074821
00825		-0.270777	0.643485	0.063613	-0.713134	-69.551991	62.047032	93.083346
00826		-0.270696	0.643501	0.063659	-0.713146	-69.556862	62.049896	93.089258
00827		-0.270588	0.643506	0.063736	-0.713176	-69.559560	62.052072	93.102325
00828		-0.270505	0.643515	0.063780	-0.713195	-69.561860	62.054992	93.110879
00829		-0.270466	0.643502	0.063767	-0.713223	-69.554645	62.058593	93.120360
00830		-0.270425	0.643499	0.063712	-0.713246	-69.546509	62.065965	93.127678
00831		-0.270411	0.643501	0.063649	-0.713255	-69.540698	62.072128	93.129496
00832		-0.270451	0.643480	0.063492	-0.713273	-69.522428	62.081042	93.131509
00833		-0.270522	0.643462	0.063320	-0.713278	-69.504898	62.088945	93.128779
00834		-0.270584	0.643431	0.063147	-0.713297	-69.483085	62.097146	93.131130
00835		-0.270613	0.643411	0.063022	-0.713315	-69.467207	62.104338	93.134244
00836		-0.270612	0.643398	0.062976	-0.713332	-69.458813	62.107675	93.138867
00837		-0.270556	0.643423	0.062988	-0.713330	-69.464645	62.111690	93.139014
00838		-0.270498	0.643422	0.062984	-0.713353	-69.460934	62.116340	93.147481
00839		-0.270491	0.643404	0.062932	-0.713376	-69.450392	62.120465	93.154332
00840		-0.270523	0.643351	0.062826	-0.713421	-69.425727	62.124836	93.167477
00841		-0.270572	0.643302	0.062723	-0.713456	-69.403721	62.127837	93.176752
00842		-0.270601	0.643264	0.062645	-0.713486	-69.386428	62.130738	93.185167
00843		-0.270605	0.643242	0.062606	-0.713507	-69.376309	62.132740	93.191715
00844		-0.270619	0.643214	0.062580	-0.713529	-69.366054	62.132863	93.198594
00845		-0.270639	0.643166	0.062556	-0.713568	-69.349837	62.131753	93.211126
00846		-0.270663	0.643145	0.062568	-0.713576	-69.345676	62.128326	93.214140
00847		-0.270658	0.643137	0.062624	-0.713581	-69.347770	62.123955	93.216957
00848		-0.270658	0.643143	0.062663	-0.713572	-69.353282	62.121007	93.214697
00849		-0.270689	0.643138	0.062665	-0.713564	-69.353593	62.118313	93.211823
00850		-0.270741	0.643128	0.062621	-0.713557	-69.349121	62.117644	93.208086
00851		-0.270804	0.643136	0.062579	-0.713530	-69.351288	62.116528	93.196992
00852		-0.270890	0.643128	0.062512	-0.713510	-69.347443	62.115175	93.187940
00853		-0.271032	0.643108	0.062439	-0.713481	-69.342196	62.109690	93.174760
00854		-0.271178	0.643091	0.062404	-0.713444	-69.341432	62.100987	93.159926
00855		-0.271280	0.643071	0.062406	-0.713423	-69.340880	62.092458	93.151692
00856		-0.271356	0.643065	0.062443	-0.713397	-69.346237	62.083659	93.142759
00857		-0.271376	0.643073	0.062509	-0.713376	-69.355790	62.077086	93.136749
00858		-0.271365	0.643097	0.062585	-0.713351	-69.369658	62.072529	93.130119
00859		-0.271338	0.643122	0.062626	-0.713336	-69.379516	62.072161	93.125956
00860		-0.271374	0.643120	0.062604	-0.713326	-69.378809	62.071126	93.121765
00861		-0.271415	0.643118	0.062491	-0.713321	-69.370501	62.077104	93.117287
00862		-0.271467	0.643112	0.062373	-0.713317	-69.360835	62.082434	93.112838
00863		-0.271468	0.643117	0.062308	-0.713318	-69.356590	62.087725	93.111646
00864		-0.271416	0.643120	0.062284	-0.713338	-69.352431	62.093642	93.118405
00865		-0.271324	0.643140	0.062288	-0.713354	-69.354208	62.100841	93.125015
00866		-0.271250	0.643146	0.062262	-0.713380	-69.349761	62.108755	93.133890
00867		-0.271190	0.643137	0.062213	-0.713414	-69.339507	62.116853	93.145365
00868		-0.271121	0.643129	0.062188	-0.713450	-69.330933	62.123828	93.157913
00869		-0.271066	0.643130	0.062169	-0.713472	-69.326637	62.129472	93.165485
00870		-0.271025	0.643140	0.062167	-0.713479	-69.327312	62.133065	93.168189
00871		-0.271011	0.643160	0.062143	-0.713468	-69.330679	62.136711	93.164078
00872		-0.270990	0.643164	0.062130	-0.713474	-69.329609	62.139491	93.165955
00873		-0.270937	0.643166	0.062125	-0.713492	-69.327101	62.143872	93.172667
00874		-0.270871	0.643160	0.062112	-0.713523	-69.320543	62.149665	93.183941
00875		-0.270791	0.643145	0.062084	-0.713570	-69.308958	62.157461	93.200218
00876		-0.270712	0.643094	0.062000	-0.713653	-69.281145	62.168428	93.228083
00877		-0.270661	0.643024	0.061893	-0.713746	-69.246589	62.178609	93.258270
00878		-0.270504	0.642949	0.061870	-0.713874	-69.212735	62.189773	93.303848
00879		-0.270322	0.642903	0.061955	-0.713978	-69.195892	62.195042	93.343480
00880		-0.270089	0.642875	0.062135	-0.714075	-69.190768	62.197142	93.383473
00881		-0.269891	0.642844	0.062338	-0.714160	-69.188877	62.194768	93.419176
00882		-0.269786	0.642800	0.062499	-0.714225	-69.183817	62.188291	93.446472
00883		-0.269724	0.642751	0.062580	-0.714286	-69.172489	62.184721	93.469779
00884		-0.269760	0.642690	0.062570	-0.714328	-69.154486	62.180761	93.483718
00885		-0.269807	0.642610	0.062497	-0.714388	-69.125314	62.180481	93.502748
00886		-0.269813	0.642541	0.062442	-0.714453	-69.099077	62.182148	93.523878
00887		-0.269761	0.642484	0.062402	-0.714527	-69.074713	62.187298	93.549458
00888		-0.269648	0.642438	0.062420	-0.714610	-69.055747	62.192781	93.579620
00889		-0.269507	0.642387	0.062501	-0.714702	-69.039434	62.195162	93.614848
00890		-0.269344	0.642359	0.062632	-0.714777	-69.033776	62.195982	93.645354
00891		-0.269177	0.642341	0.062776	-0.714843	-69.032103	62.196299	93.673327
00892		-0.269057	0.642340	0.062902	-0.714878	-69.036900	62.195118	93.689223
00893		-0.269011	0.642324	0.062970	-0.714904	-69.035591	62.192636	93.700048
00894		-0.268969	0.642334	0.062984	-0.714910	-69.037462	62.195010	93.703000
00895		-0.268939	0.642350	0.062976	-0.714907	-69.040395	62.198401	93.702080
00896		-0.268959	0.642356	0.062916	-0.714900	-69.037682	62.201842	93.698126
00897		-0.268993	0.642351	0.062839	-0.714898	-69.031057	62.205337	93.695508
00898		-0.269008	0.642341	0.062792	-0.714906	-69.024426	62.207651	93.697061
00899		-0.268942	0.642348	0.062850	-0.714919	-69.028376	62.208206	93.703534
00900		-0.268825	0.642373	0.062957	-0.714931	-69.039409	62.209201	93.711422
00901		-0.268735	0.642401	0.063069	-0.714930	-69.053706	62.207953	93.714128
00902		-0.268698	0.642415	0.063124	-0.714927	-69.060938	62.206750	93.714657
00903		-0.268664	0.642447	0.063160	-0.714907	-69.072501	62.207530	93.709113
00904		-0.268677	0.642484	0.063157	-0.714869	-69.084643	62.208069	93.695600
00905		-0.268741	0.642505	0.063105	-0.714831	-69.089756	62.208121	93.680617
00906		-0.268799	0.642539	0.063049	-0.714784	-69.098512	62.209410	93.662382
00907		-0.268826	0.642573	0.063046	-0.714743	-69.110476	62.208768	93.647780
00908		-0.268837	0.642603	0.063041	-0.714712	-69.120032	62.209351	93.636923
00909		-0.268800	0.642641	0.063144	-0.714683	-69.139294	62.205208	93.629376
00910		-0.268727	0.642670	0.063278	-0.714673	-69.156590	62.200847	93.629367
00911		-0.268652	0.642708	0.063425	-0.714654	-69.177904	62.196044	93.626650
00912		-0.268581	0.642737	0.063543	-0.714644	-69.193939	62.192907	93.626450
00913		-0.268578	0.642736	0.063600	-0.714641	-69.198564	62.188482	93.626731
00914		-0.268591	0.642720	0.063598	-0.714651	-69.193915	62.187220	93.630017
00915		-0.268550	0.642719	0.063651	-0.714662	-69.196328	62.185889	93.635500
00916		-0.268483	0.642726	0.063768	-0.714670	-69.205656	62.181857	93.641624
00917		-0.268419	0.642747	0.063861	-0.714667	-69.217152	62.179908	93.643243
00918		-0.268393	0.642756	0.063931	-0.714663	-69.224887	62.176533	93.643490
00919		-0.268409	0.642728	0.063907	-0.714684	-69.214956	62.176360	93.650100
00920		-0.268469	0.642675	0.063845	-0.714715	-69.195856	62.175083	93.658784
00921		-0.268519	0.642634	0.063802	-0.714736	-69.181880	62.173299	93.664841
00922		-0.268545	0.642607	0.063764	-0.714754	-69.171409	62.173571	93.669890
00923		-0.268553	0.642587	0.063737	-0.714772	-69.163111	62.174438	93.675299
00924		-0.268540	0.642567	0.063730	-0.714795	-69.155563	62.175226	93.683375
00925		-0.268498	0.642553	0.063748	-0.714822	-69.150420	62.176453	93.693634
00926		-0.268443	0.642531	0.063805	-0.714858	-69.145718	62.175366	93.707787
00927		-0.268339	0.642545	0.063894	-0.714876	-69.152718	62.176494	93.717049
00928		-0.268267	0.642568	0.063994	-0.714874	-69.164912	62.174639	93.719311
00929		-0.268243	0.642601	0.064079	-0.714845	-69.181920	62.170802	93.711380
00930		-0.268266	0.642646	0.064113	-0.714793	-69.200190	62.167795	93.693975
00931		-0.268363	0.642687	0.064080	-0.714723	-69.215313	62.164522	93.667742
00932		-0.268488	0.642715	0.064020	-0.714655	-69.225539	62.160909	93.641757
00933		-0.268592	0.642742	0.063926	-0.714601	-69.230896	62.161555	93.619645
00934		-0.268672	0.642766	0.063855	-0.714556	-69.236121	62.162089	93.601739
00935		-0.268662	0.642795	0.063860	-0.714533	-69.245339	62.163353	93.593843
00936		-0.268510	0.642875	0.063994	-0.714506	-69.274279	62.166758	93.589127
00937		-0.268323	0.642957	0.064156	-0.714488	-69.304611	62.170542	93.588458
00938		-0.268168	0.643029	0.064288	-0.714470	-69.330967	62.174006	93.586391
00939		-0.268065	0.643072	0.064363	-0.714462	-69.345898	62.177222	93.586656
00940		-0.268044	0.643095	0.064374	-0.714449	-69.353008	62.178584	93.582290
00941		-0.268033	0.643112	0.064389	-0.714436	-69.359153	62.178779	93.578321
00942		-0.268022	0.643129	0.064387	-0.714425	-69.363483	62.180364	93.574762
00943		-0.267987	0.643160	0.064422	-0.714407	-69.374749	62.181201	93.569544
00944		-0.267922	0.643185	0.064441	-0.714407	-69.380704	62.185445	93.570791
00945		-0.267827	0.643204	0.064477	-0.714423	-69.384725	62.190271	93.578048
00946		-0.267702	0.643204	0.064534	-0.714464	-69.383456	62.195080	93.594790
00947		-0.267576	0.643186	0.064600	-0.714522	-69.376806	62.198667	93.617878
00948		-0.267404	0.643152	0.064722	-0.714606	-69.368261	62.200740	93.651204
00949		-0.267231	0.643130	0.064884	-0.714676	-69.366782	62.199999	93.680997
00950		-0.267125	0.643090	0.064972	-0.714744	-69.356420	62.199580	93.707666
00951		-0.267074	0.643027	0.064942	-0.714822	-69.331272	62.203687	93.734764
00952		-0.267090	0.642958	0.064845	-0.714887	-69.301530	62.207903	93.755154
00953		-0.267131	0.642891	0.064723	-0.714943	-69.271657	62.212316	93.771437
00954		-0.267173	0.642814	0.064607	-0.715007	-69.239176	62.215829	93.790661
00955		-0.267173	0.642729	0.064585	-0.715085	-69.210536	62.214781	93.817378
00956		-0.267082	0.642639	0.064673	-0.715193	-69.185219	62.211543	93.857711
00957		-0.266948	0.642546	0.064826	-0.715312	-69.162968	62.206123	93.904008
00958		-0.266782	0.642446	0.064993	-0.715449	-69.138040	62.201817	93.956907
00959		-0.266630	0.642305	0.065124	-0.715619	-69.097827	62.197935	94.020780
00960		-0.266516	0.642170	0.065182	-0.715778	-69.054676	62.197211	94.078494
00961		-0.266451	0.642034	0.065188	-0.715924	-69.009083	62.196899	94.129989
00962		-0.266408	0.641906	0.065154	-0.716058	-68.963482	62.198378	94.176446
00963		-0.266403	0.641793	0.065121	-0.716164	-68.924927	62.197543	94.212619
00964		-0.266448	0.641690	0.065076	-0.716243	-68.891053	62.194115	94.238759
00965		-0.266478	0.641587	0.065040	-0.716328	-68.857229	62.191247	94.266932
00966		-0.266494	0.641527	0.065068	-0.716373	-68.841754	62.185702	94.283175
00967		-0.266489	0.641464	0.065122	-0.716427	-68.826873	62.179592	94.302899
00968		-0.266512	0.641401	0.065141	-0.716472	-68.810415	62.174173	94.318786
00969		-0.266542	0.641348	0.065131	-0.716510	-68.794426	62.170873	94.331226
00970		-0.266608	0.641298	0.065048	-0.716537	-68.774878	62.170779	94.338202
00971		-0.266699	0.641256	0.064931	-0.716552	-68.755774	62.171928	94.339815
00972		-0.266746	0.641236	0.064872	-0.716558	-68.746692	62.172416	94.340023
00973		-0.266735	0.641252	0.064888	-0.716545	-68.752667	62.172533	94.336278
00974		-0.266695	0.641299	0.064951	-0.716513	-68.770970	62.172156	94.326686
00975		-0.266658	0.641337	0.065037	-0.716485	-68.788546	62.169311	94.319402
00976		-0.266686	0.641384	0.065069	-0.716430	-68.807680	62.166398	94.300444
00977		-0.266772	0.641412	0.065042	-0.716375	-68.818632	62.163096	94.279831
00978		-0.266903	0.641444	0.064962	-0.716305	-68.828487	62.160755	94.252086
00979		-0.267025	0.641474	0.064836	-0.716244	-68.832832	62.162775	94.226900
00980		-0.267157	0.641505	0.064695	-0.716179	-68.836807	62.165255	94.199929
00981		-0.267250	0.641523	0.064535	-0.716144	-68.832502	62.171686	94.183218
00982		-0.267303	0.641517	0.064402	-0.716140	-68.821450	62.178136	94.178702
00983		-0.267271	0.641543	0.064373	-0.716132	-68.824891	62.183751	94.175743
00984		-0.267204	0.641543	0.064394	-0.716155	-68.823264	62.187053	94.184885
00985		-0.267163	0.641522	0.064423	-0.716187	-68.817130	62.187111	94.197032
00986		-0.267124	0.641504	0.064447	-0.716215	-68.811745	62.187453	94.207660
00987		-0.267129	0.641476	0.064419	-0.716241	-68.800520	62.188356	94.216101
00988		-0.267182	0.641447	0.064333	-0.716254	-68.786575	62.190242	94.218446
00989		-0.267257	0.641419	0.064211	-0.716263	-68.770452	62.193403	94.218129
00990		-0.267357	0.641383	0.064052	-0.716272	-68.750052	62.197324	94.216737
00991		-0.267436	0.641357	0.063928	-0.716277	-68.734760	62.200472	94.214955
00992		-0.267567	0.641292	0.063748	-0.716302	-68.704940	62.202785	94.218689
00993		-0.267700	0.641221	0.063582	-0.716330	-68.674967	62.203676	94.223407
00994		-0.267727	0.641179	0.063593	-0.716357	-68.664191	62.199310	94.232656
00995		-0.267659	0.641157	0.063740	-0.716389	-68.667309	62.191805	94.247462
00996		-0.267495	0.641155	0.063991	-0.716430	-68.680852	62.183990	94.268627
00997		-0.267301	0.641181	0.064280	-0.716453	-68.705137	62.176352	94.284822
00998		-0.267149	0.641185	0.064445	-0.716492	-68.713096	62.174677	94.303603
00999		-0.267111	0.641148	0.064430	-0.716540	-68.698224	62.177284	94.320492
01000		-0.267147	0.641089	0.064257	-0.716595	-68.665666	62.186403	94.335756
01001		-0.267220	0.641021	0.064024	-0.716650	-68.626859	62.197132	94.349206
01002		-0.267295	0.640956	0.063803	-0.716700	-68.590073	62.206939	94.361293
01003		-0.267328	0.640907	0.063671	-0.716743	-68.564431	62.213253	94.373204
01004		-0.267267	0.640893	0.063692	-0.716776	-68.558665	62.215586	94.386031
01005		-0.267153	0.640882	0.063763	-0.716822	-68.555401	62.218033	94.405057
01006		-0.267017	0.640859	0.063864	-0.716885	-68.550026	62.219283	94.430453
01007		-0.266868	0.640866	0.063910	-0.716929	-68.548461	62.226916	94.448699
01008		-0.266759	0.640868	0.063860	-0.716972	-68.538316	62.239115	94.464248
01009		-0.266703	0.640852	0.063682	-0.717024	-68.513484	62.256862	94.479483
01010		-0.266683	0.640839	0.063448	-0.717063	-68.486704	62.276592	94.488967
01011		-0.266658	0.640842	0.063200	-0.717092	-68.462799	62.298245	94.494763
01012		-0.266672	0.640822	0.063028	-0.717119	-68.441589	62.310203	94.500742
01013		-0.266606	0.640802	0.062964	-0.717167	-68.425585	62.319538	94.517223
01014		-0.266484	0.640810	0.063022	-0.717200	-68.426689	62.324274	94.531509
01015		-0.266333	0.640837	0.063156	-0.717221	-68.439096	62.325759	94.543322
01016		-0.266174	0.640877	0.063289	-0.717232	-68.455288	62.328405	94.551802
01017		-0.266052	0.640909	0.063362	-0.717243	-68.465179	62.332729	94.558514
01018		-0.266007	0.640945	0.063350	-0.717228	-68.472917	62.338396	94.553705
01019		-0.266046	0.640977	0.063227	-0.717196	-68.473666	62.346431	94.539611
01020		-0.266128	0.641001	0.063078	-0.717157	-68.471735	62.353024	94.522321
01021		-0.266204	0.641020	0.062953	-0.717123	-68.470364	62.358056	94.506862
01022		-0.266284	0.641044	0.062882	-0.717078	-68.475682	62.358618	94.488884
01023		-0.266331	0.641073	0.062914	-0.717033	-68.490187	62.353589	94.472975
01024		-0.266307	0.641131	0.063041	-0.716978	-68.519040	62.347366	94.456592
01025		-0.266268	0.641186	0.063184	-0.716930	-68.547560	62.340782	94.443241
01026		-0.266283	0.641227	0.063256	-0.716882	-68.567797	62.335363	94.427505
01027		-0.266318	0.641259	0.063289	-0.716837	-68.583006	62.331313	94.412064
01028		-0.266333	0.641328	0.063301	-0.716769	-68.606626	62.331591	94.388155
01029		-0.266359	0.641367	0.063303	-0.716724	-68.620499	62.330880	94.372278
01030		-0.266385	0.641419	0.063340	-0.716665	-68.641559	62.327886	94.352041
01031		-0.266402	0.641472	0.063404	-0.716606	-68.665071	62.323301	94.332263
01032		-0.266444	0.641522	0.063452	-0.716541	-68.687484	62.318168	94.310196
01033		-0.266530	0.641551	0.063470	-0.716481	-68.703029	62.311344	94.288608
01034		-0.266649	0.641581	0.063419	-0.716415	-68.714455	62.307618	94.262795
01035		-0.266789	0.641594	0.063337	-0.716358	-68.718698	62.304141	94.239648
01036		-0.266902	0.641627	0.063279	-0.716292	-68.729833	62.301502	94.214009
01037		-0.266920	0.641660	0.063256	-0.716257	-68.739149	62.303111	94.201314
01038		-0.266933	0.641692	0.063281	-0.716222	-68.752092	62.301317	94.189281
01039		-0.266917	0.641729	0.063312	-0.716191	-68.765774	62.301289	94.179552
01040		-0.266956	0.641742	0.063310	-0.716166	-68.771601	62.298923	94.170162
01041		-0.267022	0.641739	0.063273	-0.716148	-68.770806	62.296909	94.162181
01042		-0.267101	0.641733	0.063216	-0.716128	-68.768047	62.295362	94.153406
01043		-0.267157	0.641753	0.063141	-0.716096	-68.770718	62.297841	94.139810
01044		-0.267216	0.641788	0.063070	-0.716049	-68.778254	62.300339	94.121353
01045		-0.267235	0.641821	0.063032	-0.716015	-68.786213	62.303140	94.108660
01046		-0.267254	0.641879	0.063004	-0.715959	-68.802864	62.305944	94.088241
01047		-0.267267	0.641909	0.062985	-0.715929	-68.811141	62.307536	94.077317
01048		-0.267271	0.641934	0.062955	-0.715907	-68.816591	62.310479	94.069074
01049		-0.267264	0.641964	0.062928	-0.715886	-68.822944	62.314196	94.061175
01050		-0.267270	0.641966	0.062868	-0.715887	-68.818325	62.318624	94.060411
01051		-0.267290	0.641963	0.062792	-0.715889	-68.811523	62.323102	94.059266
01052		-0.267299	0.641979	0.062751	-0.715875	-68.813377	62.326221	94.053347
01053		-0.267281	0.642014	0.062755	-0.715850	-68.823682	62.328469	94.044995
01054		-0.267283	0.642061	0.062710	-0.715810	-68.834603	62.333536	94.030214
01055		-0.267320	0.642093	0.062619	-0.715776	-68.838210	62.339123	94.016046
01056		-0.267381	0.642122	0.062497	-0.715738	-68.839356	62.345319	93.999684
01057		-0.267437	0.642140	0.062361	-0.715712	-68.835788	62.352659	93.987257
01058		-0.267456	0.642168	0.062285	-0.715687	-68.838519	62.358212	93.976781
01059		-0.267397	0.642214	0.062328	-0.715665	-68.853567	62.360801	93.970387
01060		-0.267308	0.642255	0.062412	-0.715653	-68.869402	62.362097	93.969246
01061		-0.267228	0.642288	0.062500	-0.715646	-68.883503	62.362235	93.969372
01062		-0.267159	0.642329	0.062547	-0.715631	-68.896877	62.365052	93.965852
01063		-0.267148	0.642331	0.062493	-0.715637	-68.892146	62.370244	93.967107
01064		-0.267142	0.642331	0.062400	-0.715648	-68.883117	62.378120	93.969138
01065		-0.267130	0.642344	0.062276	-0.715652	-68.875186	62.389388	93.967949
01066		-0.267097	0.642350	0.062157	-0.715669	-68.864257	62.401579	93.972125
01067		-0.267073	0.642355	0.062059	-0.715682	-68.855418	62.411378	93.975084
01068		-0.267044	0.642359	0.062009	-0.715693	-68.850637	62.417647	93.978339
01069		-0.266958	0.642375	0.062003	-0.715712	-68.850385	62.425093	93.985638
01070		-0.266886	0.642378	0.062017	-0.715735	-68.848445	62.429498	93.994977
01071		-0.266824	0.642392	0.062042	-0.715743	-68.851834	62.432535	93.999023
01072		-0.266754	0.642390	0.062050	-0.715770	-68.848084	62.437031	94.009534
01073		-0.266720	0.642377	0.061953	-0.715803	-68.833080	62.446895	94.019523
01074		-0.266724	0.642345	0.061770	-0.715846	-68.806463	62.460096	94.030913
01075		-0.266724	0.642322	0.061599	-0.715882	-68.783313	62.472957	94.040117
01076		-0.266682	0.642317	0.061499	-0.715910	-68.770166	62.483937	94.048733
01077		-0.266565	0.642325	0.061509	-0.715946	-68.767215	62.492189	94.062766
01078		-0.266383	0.642333	0.061619	-0.715997	-68.769829	62.497225	94.084937
01079		-0.266188	0.642369	0.061807	-0.716021	-68.787592	62.497944	94.099524
01080		-0.266024	0.642382	0.061946	-0.716058	-68.795454	62.499589	94.117356
01081		-0.265977	0.642351	0.061944	-0.716103	-68.782946	62.502166	94.133709
01082		-0.266035	0.642289	0.061773	-0.716153	-68.750493	62.509337	94.147036
01083		-0.266136	0.642220	0.061538	-0.716197	-68.712707	62.518134	94.156902
01084		-0.266179	0.642170	0.061301	-0.716246	-68.677346	62.532145	94.169060
01085		-0.266188	0.642134	0.061097	-0.716292	-68.647609	62.546513	94.181366
01086		-0.266138	0.642088	0.060966	-0.716363	-68.618143	62.559016	94.204539
01087		-0.266049	0.642066	0.060927	-0.716419	-68.602662	62.568021	94.224493
01088		-0.265954	0.642050	0.060970	-0.716466	-68.596051	62.571077	94.242833
01089		-0.265902	0.642030	0.061039	-0.716497	-68.593259	62.568670	94.255799
01090		-0.265879	0.642022	0.061098	-0.716508	-68.594857	62.565533	94.260996
01091		-0.265958	0.641986	0.061055	-0.716514	-68.584018	62.561747	94.261393
01092		-0.266099	0.641940	0.060920	-0.716515	-68.564685	62.560409	94.257461
01093		-0.266289	0.641897	0.060658	-0.716505	-68.537462	62.565584	94.246697
01094		-0.266484	0.641834	0.060423	-0.716509	-68.506711	62.567696	94.241249
01095		-0.266609	0.641805	0.060274	-0.716500	-68.490983	62.569279	94.233956
01096		-0.266634	0.641791	0.060242	-0.716507	-68.484807	62.569405	94.235274
01097		-0.266611	0.641782	0.060300	-0.716518	-68.486313	62.566149	94.240490
01098		-0.266513	0.641808	0.060493	-0.716515	-68.506775	62.559050	94.244345
01099		-0.266452	0.641838	0.060678	-0.716496	-68.529890	62.549898	94.241654
01100		-0.266446	0.641860	0.060763	-0.716471	-68.544378	62.544321	94.234564
01101		-0.266562	0.641894	0.060735	-0.716399	-68.559092	62.539109	94.207539
01102		-0.266775	0.641893	0.060619	-0.716331	-68.559968	62.532424	94.178708
01103		-0.266996	0.641882	0.060462	-0.716271	-68.554553	62.528158	94.151996
01104		-0.267193	0.641871	0.060328	-0.716219	-68.549594	62.523753	94.128895
01105		-0.267300	0.641869	0.060259	-0.716187	-68.548580	62.521233	94.114996
01106		-0.267305	0.641883	0.060268	-0.716172	-68.554285	62.520706	94.109592
01107		-0.267240	0.641883	0.060275	-0.716195	-68.551340	62.524918	94.118755
01108		-0.267182	0.641894	0.060277	-0.716207	-68.551775	62.529448	94.123607
01109		-0.267099	0.641901	0.060294	-0.716230	-68.550773	62.534609	94.133193
01110		-0.267010	0.641918	0.060303	-0.716248	-68.551833	62.541014	94.140573
01111		-0.266935	0.641934	0.060254	-0.716265	-68.548335	62.551050	94.146732
01112		-0.266913	0.641935	0.060150	-0.716281	-68.537799	62.561073	94.150732
01113		-0.266909	0.641939	0.059999	-0.716291	-68.524898	62.573557	94.151582
01114		-0.266899	0.641946	0.059809	-0.716305	-68.508725	62.589730	94.153235
01115		-0.266869	0.641952	0.059658	-0.716324	-68.494865	62.604203	94.157477
01116		-0.266758	0.641963	0.059523	-0.716366	-68.479662	62.623561	94.171299
01117		-0.266589	0.641985	0.059448	-0.716416	-68.470141	62.642882	94.189497
01118		-0.266382	0.641985	0.059401	-0.716496	-68.454286	62.662021	94.219565
01119		-0.266198	0.641992	0.059320	-0.716566	-68.438280	62.682428	94.245043
01120		-0.266025	0.641976	0.059211	-0.716653	-68.413393	62.703484	94.276046
01121		-0.265879	0.641976	0.059097	-0.716717	-68.394305	62.723409	94.298611
01122		-0.265764	0.641984	0.058965	-0.716763	-68.378116	62.742724	94.314113
01123		-0.265647	0.642008	0.058847	-0.716795	-68.368029	62.761671	94.324803
01124		-0.265587	0.642051	0.058734	-0.716788	-68.367672	62.776681	94.321157
01125		-0.265552	0.642072	0.058626	-0.716790	-68.362471	62.788625	94.320719
01126		-0.265518	0.642108	0.058555	-0.716776	-68.365409	62.798097	94.314997
01127		-0.265446	0.642134	0.058536	-0.716782	-68.367590	62.805812	94.317548
01128		-0.265380	0.642151	0.058537	-0.716790	-68.369493	62.811353	94.321449
01129		-0.265318	0.642158	0.058498	-0.716811	-68.364323	62.819260	94.328982
01130		-0.265285	0.642147	0.058429	-0.716838	-68.352754	62.826845	94.337693
01131		-0.265271	0.642136	0.058356	-0.716860	-68.341394	62.833261	94.344330
01132		-0.265233	0.642134	0.058314	-0.716878	-68.334778	62.839453	94.350819
01133		-0.265143	0.642149	0.058356	-0.716895	-68.338281	62.843262	94.358669
01134		-0.265061	0.642172	0.058498	-0.716893	-68.354250	62.838862	94.361430
01135		-0.264943	0.642208	0.058645	-0.716893	-68.372506	62.837269	94.365396
01136		-0.264893	0.642227	0.058747	-0.716886	-68.385269	62.833437	94.365300
01137		-0.264975	0.642210	0.058713	-0.716874	-68.381306	62.829478	94.359394
01138		-0.265113	0.642180	0.058590	-0.716860	-68.368205	62.827931	94.350443
01139		-0.265246	0.642152	0.058507	-0.716842	-68.359351	62.823653	94.340889
01140		-0.265270	0.642154	0.058488	-0.716833	-68.359450	62.823563	94.337146
01141		-0.265266	0.642188	0.058565	-0.716798	-68.377148	62.818868	94.326026
01142		-0.265200	0.642184	0.058658	-0.716818	-68.380829	62.816207	94.335797
01143		-0.265160	0.642189	0.058729	-0.716823	-68.386777	62.813739	94.339075
01144		-0.265143	0.642197	0.058758	-0.716819	-68.391081	62.812954	94.338528
01145		-0.265166	0.642209	0.058763	-0.716799	-68.396786	62.811293	94.331308
01146		-0.265226	0.642245	0.058737	-0.716747	-68.409250	62.810199	94.311605
01147		-0.265292	0.642284	0.058692	-0.716692	-68.421137	62.810214	94.290337
01148		-0.265384	0.642315	0.058627	-0.716635	-68.430398	62.809682	94.267773
01149		-0.265465	0.642351	0.058610	-0.716574	-68.444923	62.806297	94.244913
01150		-0.265491	0.642379	0.058617	-0.716538	-68.456097	62.804764	94.231990
01151		-0.265483	0.642403	0.058632	-0.716519	-68.464528	62.804988	94.225639
01152		-0.265434	0.642415	0.058701	-0.716521	-68.472028	62.803637	94.227961
01153		-0.265382	0.642424	0.058757	-0.716527	-68.477116	62.803281	94.232035
01154		-0.265338	0.642462	0.058774	-0.716508	-68.488395	62.806553	94.225891
01155		-0.265363	0.642498	0.058713	-0.716472	-68.495501	62.810853	94.211715
01156		-0.265453	0.642502	0.058559	-0.716447	-68.487682	62.816600	94.199207
01157		-0.265594	0.642502	0.058407	-0.716408	-68.481480	62.818191	94.180794
01158		-0.265634	0.642537	0.058357	-0.716366	-68.490422	62.820407	94.164326
01159		-0.265566	0.642590	0.058458	-0.716335	-68.512909	62.819293	94.156031
01160		-0.265420	0.642645	0.058631	-0.716325	-68.538206	62.818335	94.157611
01161		-0.265266	0.642671	0.058780	-0.716347	-68.551369	62.818778	94.170027
01162		-0.265150	0.642659	0.058850	-0.716395	-68.547649	62.821460	94.189491
01163		-0.265089	0.642632	0.058818	-0.716444	-68.532491	62.827523	94.207347
01164		-0.265042	0.642577	0.058739	-0.716517	-68.505035	62.835388	94.232333
01165		-0.264976	0.642544	0.058620	-0.716581	-68.479593	62.848681	94.253803
01166		-0.264863	0.642508	0.058535	-0.716662	-68.453548	62.862527	94.282734
01167		-0.264747	0.642474	0.058473	-0.716740	-68.430534	62.874889	94.310762
01168		-0.264593	0.642431	0.058446	-0.716838	-68.405442	62.886947	94.347024
01169		-0.264430	0.642393	0.058436	-0.716933	-68.382821	62.898596	94.382913
01170		-0.264270	0.642347	0.058429	-0.717034	-68.358145	62.909382	94.420915
01171		-0.264111	0.642294	0.058434	-0.717140	-68.332555	62.918911	94.460705
01172		-0.263977	0.642247	0.058442	-0.717231	-68.310381	62.926501	94.495150
01173		-0.263810	0.642189	0.058437	-0.717344	-68.281838	62.937217	94.537755
01174		-0.263630	0.642150	0.058487	-0.717441	-68.263524	62.945206	94.575617
01175		-0.263422	0.642109	0.058509	-0.717553	-68.240381	62.957380	94.618661
01176		-0.263218	0.642061	0.058565	-0.717666	-68.218390	62.966280	94.662884
01177		-0.263003	0.642022	0.058641	-0.717773	-68.200704	62.974782	94.705431
01178		-0.262817	0.641979	0.058710	-0.717874	-68.182780	62.981502	94.745052
01179		-0.262637	0.641940	0.058822	-0.717966	-68.170091	62.984552	94.782430
01180		-0.262481	0.641917	0.058960	-0.718032	-68.166699	62.984321	94.810645
01181		-0.262311	0.641885	0.059109	-0.718111	-68.160630	62.983918	94.843553
01182		-0.262175	0.641827	0.059234	-0.718202	-68.145983	62.981953	94.880136
01183		-0.262064	0.641747	0.059303	-0.718308	-68.120591	62.981725	94.920659
01184		-0.261998	0.641659	0.059332	-0.718408	-68.091359	62.981123	94.957864
01185		-0.261913	0.641571	0.059385	-0.718514	-68.063010	62.979937	94.997774
01186		-0.261794	0.641487	0.059491	-0.718623	-68.039479	62.977269	95.040167
01187		-0.261648	0.641410	0.059616	-0.718734	-68.018191	62.975250	95.084187
01188		-0.261531	0.641327	0.059705	-0.718844	-67.993337	62.973790	95.126443
01189		-0.261410	0.641252	0.059742	-0.718951	-67.965900	62.976981	95.167242
01190		-0.261370	0.641131	0.059692	-0.719078	-67.920112	62.979440	95.212280
01191		-0.261317	0.641017	0.059588	-0.719208	-67.870456	62.987418	95.257951
01192		-0.261194	0.640934	0.059562	-0.719329	-67.834249	62.995423	95.302630
01193		-0.261015	0.640876	0.059615	-0.719441	-67.810307	63.002196	95.346315
01194		-0.260804	0.640836	0.059714	-0.719545	-67.794355	63.008454	95.388644
01195		-0.260647	0.640786	0.059776	-0.719641	-67.775067	63.013183	95.426462
01196		-0.260529	0.640724	0.059787	-0.719738	-67.749485	63.018649	95.463234
01197		-0.260486	0.640671	0.059722	-0.719807	-67.723662	63.024952	95.487387
01198		-0.260472	0.640660	0.059631	-0.719829	-67.710570	63.032761	95.494221
01199		-0.260440	0.640660	0.059540	-0.719848	-67.700048	63.042351	95.500178
01200		-0.260383	0.640688	0.059460	-0.719850	-67.697689	63.053950	95.500962
01201		-0.260300	0.640735	0.059422	-0.719842	-67.704118	63.064911	95.498721
01202		-0.260240	0.640773	0.059381	-0.719832	-67.708977	63.073983	95.495779
01203		-0.260173	0.640818	0.059337	-0.719820	-67.715207	63.084081	95.491831
01204		-0.260118	0.640854	0.059320	-0.719810	-67.721748	63.090850	95.488784
01205		-0.260096	0.640909	0.059279	-0.719772	-67.734165	63.097823	95.474938
01206		-0.260142	0.640960	0.059233	-0.719714	-67.748577	63.100016	95.452901
01207		-0.260183	0.641031	0.059206	-0.719638	-67.771238	63.101757	95.424534
01208		-0.260303	0.641103	0.059150	-0.719535	-67.796205	63.100091	95.384715
01209		-0.260422	0.641188	0.059163	-0.719415	-67.831513	63.093423	95.340249
01210		-0.260464	0.641298	0.059247	-0.719295	-67.877447	63.087824	95.297610
01211		-0.260470	0.641410	0.059374	-0.719183	-67.925672	63.081526	95.259376
01212		-0.260466	0.641480	0.059470	-0.719113	-67.957326	63.076777	95.235989
01213		-0.260441	0.641572	0.059544	-0.719034	-67.992505	63.076120	95.209102
01214		-0.260420	0.641620	0.059632	-0.718992	-68.014933	63.072510	95.195710
01215		-0.260395	0.641663	0.059679	-0.718958	-68.031823	63.072256	95.184903
01216		-0.260417	0.641671	0.059710	-0.718941	-68.038628	63.068468	95.178779
01217		-0.260485	0.641665	0.059713	-0.718922	-68.040795	63.062951	95.170860
01218		-0.260539	0.641661	0.059687	-0.718907	-68.040394	63.060946	95.164493
01219		-0.260603	0.641644	0.059614	-0.718905	-68.031803	63.061299	95.161635
01220		-0.260657	0.641627	0.059474	-0.718913	-68.015901	63.067819	95.161387
01221		-0.260731	0.641583	0.059283	-0.718941	-67.988140	63.075892	95.167069
01222		-0.260753	0.641522	0.059137	-0.718999	-67.955966	63.083542	95.185390
01223		-0.260714	0.641465	0.059094	-0.719068	-67.931187	63.087736	95.210027
01224		-0.260626	0.641412	0.059152	-0.719143	-67.914405	63.087650	95.239112
01225		-0.260491	0.641372	0.059302	-0.719215	-67.908026	63.084234	95.269292
01226		-0.260405	0.641322	0.059435	-0.719279	-67.899594	63.078168	95.295919
01227		-0.260409	0.641264	0.059465	-0.719327	-67.884234	63.073327	95.313304
01228		-0.260484	0.641202	0.059395	-0.719361	-67.862189	63.070991	95.323089
01229		-0.260631	0.641135	0.059242	-0.719380	-67.834668	63.069784	95.325280
01230		-0.260825	0.641072	0.059024	-0.719384	-67.805038	63.070460	95.320220
01231		-0.261003	0.641016	0.058829	-0.719385	-67.779003	63.070710	95.314853
01232		-0.261121	0.640987	0.058744	-0.719375	-67.768507	63.067554	95.308172
01233		-0.261176	0.640968	0.058785	-0.719369	-67.769385	63.059599	95.305802
01234		-0.261201	0.640951	0.058934	-0.719363	-67.779858	63.045325	95.305253
01235		-0.261219	0.640947	0.059116	-0.719345	-67.796969	63.029454	95.301429
01236		-0.261282	0.640932	0.059313	-0.719320	-67.814740	63.008577	95.294178
01237		-0.261371	0.640928	0.059461	-0.719278	-67.833184	62.990118	95.280059
01238		-0.261555	0.640902	0.059531	-0.719229	-67.842295	62.969982	95.260674
01239		-0.261788	0.640915	0.059557	-0.719130	-67.862685	62.951256	95.222102
01240		-0.262071	0.640924	0.059537	-0.719021	-67.880171	62.932297	95.178463
01241		-0.262403	0.640937	0.059481	-0.718892	-67.898510	62.912691	95.126629
01242		-0.262735	0.640946	0.059451	-0.718765	-67.918143	62.890895	95.075705
01243		-0.262979	0.640973	0.059533	-0.718646	-67.948657	62.867306	95.030815
01244		-0.263094	0.641014	0.059750	-0.718549	-67.989047	62.843086	94.998043
01245		-0.263118	0.641082	0.060073	-0.718453	-68.042565	62.818181	94.968822
01246		-0.263103	0.641150	0.060346	-0.718375	-68.089219	62.800080	94.945787
01247		-0.263142	0.641212	0.060544	-0.718288	-68.130063	62.783779	94.917779
01248		-0.263259	0.641262	0.060597	-0.718196	-68.157776	62.772643	94.884306
01249		-0.263452	0.641296	0.060557	-0.718098	-68.176015	62.762823	94.846034
01250		-0.263661	0.641347	0.060508	-0.717980	-68.199577	62.753057	94.800440
01251		-0.263826	0.641418	0.060492	-0.717857	-68.230051	62.744692	94.754307
01252		-0.263930	0.641495	0.060577	-0.717743	-68.268612	62.733037	94.713808
01253		-0.263946	0.641579	0.060705	-0.717652	-68.307973	62.724679	94.683512
01254		-0.263959	0.641661	0.060865	-0.717560	-68.349791	62.713976	94.653745
01255		-0.263985	0.641702	0.060943	-0.717507	-68.371657	62.707221	94.635985
01256		-0.264060	0.641735	0.060945	-0.717450	-68.386809	62.702748	94.614602
01257		-0.264200	0.641747	0.060847	-0.717396	-68.389347	62.700513	94.591857
01258		-0.264376	0.641757	0.060692	-0.717335	-68.387852	62.700226	94.565440
01259		-0.264486	0.641810	0.060590	-0.717256	-68.401349	62.702032	94.534146
01260		-0.264562	0.641900	0.060457	-0.717158	-68.422099	62.710159	94.496085
01261		-0.264653	0.641964	0.060341	-0.717078	-68.436488	62.714957	94.464412
01262		-0.264687	0.642042	0.060294	-0.716999	-68.459044	62.718973	94.435113
01263		-0.264676	0.642110	0.060294	-0.716942	-68.479859	62.722139	94.415404
01264		-0.264660	0.642178	0.060357	-0.716882	-68.506499	62.720699	94.395393
01265		-0.264649	0.642217	0.060415	-0.716846	-68.523925	62.718308	94.383702
01266		-0.264710	0.642231	0.060405	-0.716812	-68.530817	62.715045	94.370649
01267		-0.264853	0.642208	0.060268	-0.716791	-68.518715	62.714609	94.359150
01268		-0.265012	0.642183	0.060080	-0.716770	-68.502396	62.716870	94.346287
01269		-0.265096	0.642170	0.059878	-0.716768	-68.484070	62.726219	94.340767
01270		-0.265137	0.642155	0.059693	-0.716782	-68.464403	62.737383	94.341796
01271		-0.265066	0.642125	0.059595	-0.716843	-68.441699	62.749398	94.362686
01272		-0.264901	0.642111	0.059567	-0.716919	-68.425097	62.763404	94.391336
01273		-0.264739	0.642061	0.059531	-0.717026	-68.396830	62.776545	94.430732
01274		-0.264622	0.641986	0.059429	-0.717146	-68.356508	62.790741	94.472875
01275		-0.264572	0.641874	0.059275	-0.717277	-68.303561	62.802657	94.517404
01276		-0.264527	0.641782	0.059112	-0.717389	-68.256524	62.815709	94.555072
01277		-0.264449	0.641659	0.058997	-0.717538	-68.201795	62.826221	94.607009
01278		-0.264370	0.641571	0.058873	-0.717655	-68.157867	62.838699	94.647628
01279		-0.264317	0.641474	0.058703	-0.717776	-68.107616	62.852664	94.688514
01280		-0.264284	0.641396	0.058518	-0.717873	-68.063399	62.866938	94.720426
01281		-0.264239	0.641332	0.058342	-0.717960	-68.023875	62.882016	94.749436
01282		-0.264211	0.641275	0.058195	-0.718033	-67.990204	62.893727	94.773531
01283		-0.264228	0.641198	0.058045	-0.718108	-67.952405	62.901515	94.797554
01284		-0.264255	0.641129	0.057934	-0.718169	-67.921519	62.905800	94.816958
01285		-0.264276	0.641079	0.057859	-0.718212	-67.899806	62.908374	94.830656
01286		-0.264347	0.641038	0.057807	-0.718226	-67.885962	62.905843	94.834062
01287		-0.264463	0.641001	0.057766	-0.718220	-67.877121	62.899115	94.829427
01288		-0.264649	0.640989	0.057646	-0.718172	-67.872605	62.894501	94.807970
01289		-0.264995	0.640999	0.057388	-0.718056	-67.871900	62.889750	94.757621
01290		-0.265458	0.641050	0.057008	-0.717870	-67.879647	62.887662	94.678673
01291		-0.265985	0.641128	0.056601	-0.717637	-67.897216	62.883887	94.582258
01292		-0.266503	0.641226	0.056246	-0.717386	-67.925377	62.877433	94.480147
01293		-0.266963	0.641351	0.056092	-0.717114	-67.978056	62.860130	94.374971
01294		-0.267361	0.641501	0.056037	-0.716837	-68.043802	62.840338	94.270320
01295		-0.267722	0.641616	0.056052	-0.716598	-68.102806	62.816533	94.181198
01296		-0.268074	0.641715	0.056111	-0.716372	-68.160515	62.789258	94.097805
01297		-0.268344	0.641819	0.056221	-0.716169	-68.219403	62.764069	94.024387
01298		-0.268493	0.641945	0.056419	-0.715985	-68.286403	62.741635	93.960657
01299		-0.268567	0.642091	0.056699	-0.715804	-68.362865	62.718883	93.900736
01300		-0.268628	0.642254	0.056987	-0.715613	-68.444613	62.696966	93.837361
01301		-0.268721	0.642386	0.057221	-0.715441	-68.513362	62.675936	93.779731
01302		-0.268872	0.642495	0.057406	-0.715271	-68.573622	62.653639	93.721510
01303		-0.269081	0.642566	0.057537	-0.715118	-68.619876	62.630091	93.667714
01304		-0.269262	0.642633	0.057694	-0.714977	-68.665928	62.606332	93.618818
01305		-0.269386	0.642672	0.057884	-0.714880	-68.702345	62.583188	93.587123
01306		-0.269484	0.642683	0.058057	-0.714819	-68.727180	62.562440	93.567790
01307		-0.269537	0.642671	0.058222	-0.714797	-68.741215	62.544869	93.562542
01308		-0.269544	0.642630	0.058316	-0.714823	-68.737286	62.535413	93.573485
01309		-0.269561	0.642558	0.058366	-0.714877	-68.719914	62.527655	93.593271
01310		-0.269540	0.642475	0.058423	-0.714955	-68.697637	62.521896	93.621954
01311		-0.269519	0.642385	0.058444	-0.715042	-68.669874	62.518657	93.653110
01312		-0.269531	0.642279	0.058420	-0.715135	-68.634806	62.516110	93.685072
01313		-0.269513	0.642166	0.058397	-0.715245	-68.595942	62.515312	93.723480
01314		-0.269458	0.642061	0.058389	-0.715361	-68.558748	62.516509	93.764641
01315		-0.269398	0.641944	0.058349	-0.715492	-68.514753	62.520048	93.810530
01316		-0.269336	0.641786	0.058287	-0.715662	-68.455597	62.524161	93.869833
01317		-0.269256	0.641662	0.058205	-0.715809	-68.404350	62.532332	93.921177
01318		-0.269162	0.641496	0.058113	-0.716001	-68.337946	62.540819	93.988079
01319		-0.269070	0.641352	0.058019	-0.716173	-68.278512	62.550121	94.047736
01320		-0.268969	0.641211	0.057950	-0.716342	-68.221916	62.558149	94.107318
01321		-0.268802	0.641090	0.057983	-0.716510	-68.177106	62.563674	94.169165
01322		-0.268569	0.640985	0.058130	-0.716680	-68.144254	62.565545	94.234201
01323		-0.268311	0.640900	0.058331	-0.716836	-68.121308	62.565625	94.295922
01324		-0.268096	0.640820	0.058516	-0.716973	-68.100843	62.563912	94.350008
01325		-0.267941	0.640725	0.058643	-0.717105	-68.073899	62.561884	94.400683
01326		-0.267860	0.640629	0.058699	-0.717217	-68.044011	62.560022	94.442109
01327		-0.267806	0.640560	0.058693	-0.717299	-68.018433	62.561932	94.471733
01328		-0.267742	0.640490	0.058684	-0.717386	-67.992038	62.564848	94.502924
01329		-0.267649	0.640444	0.058723	-0.717459	-67.975665	62.566986	94.530582
01330		-0.267547	0.640412	0.058779	-0.717521	-67.965014	62.568909	94.554535
01331		-0.267449	0.640398	0.058843	-0.717564	-67.961051	62.570602	94.572259
01332		-0.267410	0.640375	0.058894	-0.717595	-67.956293	62.568606	94.584535
01333		-0.267397	0.640355	0.058949	-0.717614	-67.954134	62.564476	94.592308
01334		-0.267388	0.640364	0.059059	-0.717600	-67.966876	62.556619	94.589350
01335		-0.267377	0.640395	0.059265	-0.717559	-67.995417	62.542215	94.578497
01336		-0.267419	0.640442	0.059432	-0.717488	-68.028349	62.527536	94.555627
01337		-0.267485	0.640514	0.059588	-0.717386	-68.069373	62.512848	94.521662
01338		-0.267564	0.640596	0.059733	-0.717271	-68.113170	62.498371	94.482879
01339		-0.267634	0.640705	0.059861	-0.717137	-68.163429	62.486888	94.437075
01340		-0.267704	0.640820	0.059916	-0.717004	-68.208668	62.481472	94.390334
01341		-0.267826	0.640950	0.059878	-0.716845	-68.253190	62.480096	94.332304
01342		-0.268023	0.641032	0.059709	-0.716713	-68.274369	62.481800	94.280302
01343		-0.268263	0.641098	0.059395	-0.716589	-68.279840	62.491410	94.228461
01344		-0.268500	0.641195	0.059084	-0.716439	-68.295050	62.501987	94.167325
01345		-0.268676	0.641316	0.058800	-0.716288	-68.317014	62.515868	94.107016
01346		-0.268852	0.641440	0.058514	-0.716135	-68.339783	62.529976	94.045831
01347		-0.269066	0.641555	0.058212	-0.715976	-68.360454	62.542243	93.982105
01348		-0.269350	0.641673	0.057829	-0.715794	-68.378666	62.555747	93.908048
01349		-0.269707	0.641747	0.057372	-0.715631	-68.380408	62.568295	93.838087
01350		-0.270134	0.641819	0.056877	-0.715445	-68.382121	62.578627	93.758957
01351		-0.270628	0.641893	0.056293	-0.715238	-68.380245	62.590982	93.670268
01352		-0.271226	0.641988	0.055601	-0.714980	-68.381385	62.605107	93.560752
01353		-0.271951	0.642046	0.054732	-0.714719	-68.362488	62.622611	93.445653
01354		-0.272875	0.642070	0.053609	-0.714431	-68.321130	62.644484	93.315057
01355		-0.274047	0.642045	0.052191	-0.714110	-68.252840	62.669754	93.165516
01356		-0.275480	0.641980	0.050472	-0.713740	-68.160556	62.698530	92.992576
01357		-0.277134	0.641860	0.048466	-0.713347	-68.039368	62.732138	92.805718
01358		-0.279023	0.641738	0.046265	-0.712866	-67.916054	62.763958	92.584418
01359		-0.281165	0.641565	0.043842	-0.712333	-67.773590	62.793205	92.341836
01360		-0.283570	0.641349	0.041146	-0.711735	-67.612090	62.823719	92.072813
01361		-0.286480	0.641034	0.037927	-0.711031	-67.407490	62.855695	91.759464
01362		-0.289990	0.640581	0.034132	-0.710209	-67.150530	62.885432	91.398365
01363		-0.293802	0.640107	0.030219	-0.709246	-66.902075	62.902188	90.991967
01364		-0.297590	0.639770	0.026545	-0.708117	-66.723049	62.906620	90.537117
01365		-0.301299	0.639555	0.023078	-0.706863	-66.602368	62.904533	90.047346
01366		-0.304846	0.639535	0.019949	-0.705454	-66.567613	62.893671	89.513019
01367		-0.308072	0.639673	0.017250	-0.703998	-66.602587	62.876786	88.972113
01368		-0.310893	0.640017	0.014967	-0.702495	-66.715501	62.862195	88.422962
01369		-0.313345	0.640522	0.013076	-0.700981	-66.890131	62.847309	87.876720
01370		-0.315463	0.641127	0.011447	-0.699505	-67.098260	62.838243	87.347934
01371		-0.317468	0.641736	0.009883	-0.698063	-67.307123	62.831572	86.833556
01372		-0.319571	0.642323	0.008177	-0.696584	-67.506875	62.827724	86.307679
01373		-0.321840	0.642869	0.006345	-0.695053	-67.696706	62.819421	85.766223
01374		-0.324255	0.643415	0.004398	-0.693438	-67.890009	62.808597	85.198526
01375		-0.326975	0.643886	0.002191	-0.691732	-68.062265	62.792968	84.602948
01376		-0.330116	0.644218	-0.000405	-0.689933	-68.191938	62.772997	83.979608
01377		-0.333663	0.644426	-0.003384	-0.688021	-68.285332	62.749796	83.323922
01378		-0.337500	0.644524	-0.006634	-0.686031	-68.348328	62.723500	82.649350
01379		-0.341472	0.644585	-0.009928	-0.683965	-68.410825	62.688793	81.958374
01380		-0.345291	0.644683	-0.012951	-0.681902	-68.497917	62.643521	81.277733
01381		-0.348793	0.644881	-0.015519	-0.679875	-68.629470	62.586058	80.617703
01382		-0.351983	0.645184	-0.017748	-0.677886	-68.798926	62.525632	79.975073
01383		-0.355039	0.645516	-0.019766	-0.675918	-68.983438	62.457431	79.346127
01384		-0.358102	0.645813	-0.021805	-0.673953	-69.157933	62.388792	78.724183
01385		-0.361340	0.646001	-0.024023	-0.671967	-69.299671	62.318437	78.103330
01386		-0.364867	0.646059	-0.026550	-0.669906	-69.403628	62.248221	77.467489
01387		-0.368699	0.645973	-0.029396	-0.667769	-69.466531	62.177531	76.817363
01388		-0.372762	0.645775	-0.032531	-0.665556	-69.497750	62.110550	76.152678
01389		-0.377151	0.645419	-0.036085	-0.663242	-69.484088	62.049923	75.466783
01390		-0.381956	0.644887	-0.040162	-0.660771	-69.423327	61.997179	74.744764
01391		-0.387088	0.644217	-0.044620	-0.658146	-69.331544	61.948059	73.989743
01392		-0.392344	0.643581	-0.049186	-0.655325	-69.265701	61.897341	73.186015
01393		-0.397668	0.642976	-0.053836	-0.652337	-69.223486	61.847116	72.342770
01394		-0.403144	0.642378	-0.058655	-0.649141	-69.200203	61.797288	71.449482
01395		-0.408866	0.641703	-0.063717	-0.645744	-69.172493	61.745791	70.514196
01396		-0.414858	0.640941	-0.069162	-0.642109	-69.137766	61.701935	69.525129
01397		-0.421295	0.639964	-0.075082	-0.638216	-69.065790	61.658456	68.487154
01398		-0.428238	0.638731	-0.081625	-0.634013	-68.948685	61.622762	67.389123
01399		-0.435538	0.637226	-0.088503	-0.629616	-68.783318	61.583171	66.270882
01400		-0.442906	0.635583	-0.095341	-0.625123	-68.604329	61.532687	65.156497
01401		-0.450044	0.634005	-0.101803	-0.620591	-68.463057	61.467750	64.051353
01402		-0.456754	0.632651	-0.107726	-0.616055	-68.396793	61.390516	62.952304
01403		-0.462997	0.631558	-0.113095	-0.611537	-68.410171	61.302621	61.860643
01404		-0.468859	0.630656	-0.117987	-0.607061	-68.479940	61.203011	60.785433
01405		-0.474546	0.629842	-0.122632	-0.602550	-68.581284	61.093730	59.711988
01406		-0.480287	0.628947	-0.127322	-0.597946	-68.672903	60.980533	58.634017
01407		-0.486353	0.627778	-0.132357	-0.593159	-68.711821	60.866583	57.540996
01408		-0.492925	0.626167	-0.137943	-0.588142	-68.660760	60.755380	56.432857
01409		-0.500119	0.624011	-0.144221	-0.582831	-68.502304	60.649909	55.301684
01410		-0.507924	0.621232	-0.151224	-0.577248	-68.219431	60.555286	54.160107
01411		-0.516411	0.617780	-0.159020	-0.571297	-67.812644	60.471589	52.991662
01412		-0.525549	0.613636	-0.167613	-0.564938	-67.286310	60.401728	51.791034
01413		-0.535168	0.608919	-0.176839	-0.558158	-66.676481	60.345369	50.550664
01414		-0.545107	0.603754	-0.186513	-0.550956	-66.017585	60.298967	49.265936
01415		-0.555343	0.598117	-0.196634	-0.543310	-65.310035	60.264451	47.935899
01416		-0.565853	0.592028	-0.207152	-0.535165	-64.566278	60.238596	46.550734
01417		-0.576590	0.585551	-0.217947	-0.526473	-63.808456	60.213783	45.100254
01418		-0.587548	0.578608	-0.228944	-0.517287	-63.015887	60.185932	43.608465
01419		-0.598756	0.571086	-0.239948	-0.507717	-62.152809	60.139596	42.121448
01420		-0.610193	0.562931	-0.250843	-0.497847	-61.199514	60.069514	40.667818
01421		-0.621836	0.554209	-0.261509	-0.487632	-60.174850	59.966368	39.238057
01422		-0.633506	0.545111	-0.271789	-0.477131	-59.115804	59.830176	37.828181
01423		-0.645020	0.535892	-0.281533	-0.466377	-58.074660	59.660211	36.421283
01424		-0.656256	0.526637	-0.290812	-0.455423	-57.066105	59.471744	35.012173
01425		-0.667212	0.517380	-0.299657	-0.444243	-56.097923	59.266571	33.590291
01426		-0.677803	0.508239	-0.307986	-0.432922	-55.184621	59.044065	32.161912
01427		-0.687820	0.499521	-0.315544	-0.421680	-54.365560	58.798528	30.745344
01428		-0.696998	0.491588	-0.322130	-0.410813	-53.683620	58.533883	29.363819
01429		-0.705246	0.484587	-0.327716	-0.400506	-53.147200	58.255352	28.036015
01430		-0.712581	0.478512	-0.332438	-0.390818	-52.746528	57.973263	26.766285
01431		-0.719169	0.473239	-0.336303	-0.381759	-52.447583	57.676741	25.571680
01432		-0.725137	0.468565	-0.339455	-0.373356	-52.205121	57.371536	24.471557
01433		-0.730628	0.464364	-0.341968	-0.365522	-51.998338	57.052906	23.461136
01434		-0.735710	0.460598	-0.343950	-0.358161	-51.828534	56.723323	22.521149
01435		-0.740414	0.457274	-0.345516	-0.351151	-51.707932	56.386801	21.624028
01436		-0.744847	0.454228	-0.346830	-0.344367	-51.617243	56.048674	20.755959
01437		-0.749061	0.451437	-0.347970	-0.337683	-51.562343	55.708910	19.894391
01438		-0.753018	0.448953	-0.348988	-0.331078	-51.556546	55.372685	19.027334
01439		-0.756736	0.446793	-0.349902	-0.324493	-51.606539	55.037680	18.143633
01440		-0.760239	0.444868	-0.350769	-0.317946	-51.694908	54.708681	17.251773
01441		-0.763518	0.443140	-0.351644	-0.311471	-51.813750	54.392340	16.357354
01442		-0.766540	0.441594	-0.352599	-0.305099	-51.961086	54.098065	15.461605
01443		-0.769330	0.440151	-0.353681	-0.298843	-52.123264	53.829797	14.570384
01444		-0.771895	0.438801	-0.354926	-0.292677	-52.302358	53.589530	13.677026
01445		-0.774309	0.437389	-0.356345	-0.286624	-52.468451	53.376783	12.798406
01446		-0.776678	0.435765	-0.358000	-0.280564	-52.603813	53.189471	11.925069
01447		-0.779113	0.433767	-0.359846	-0.274480	-52.677517	53.019719	11.072255
01448		-0.781619	0.431438	-0.361863	-0.268308	-52.701825	52.862954	10.226736
01449		-0.784144	0.428909	-0.363980	-0.262056	-52.699044	52.714108	9.381748
01450		-0.786668	0.426253	-0.366136	-0.255745	-52.679012	52.568458	8.538035
01451		-0.789208	0.423482	-0.368295	-0.249345	-52.643942	52.420595	7.692743
01452		-0.791792	0.420591	-0.370397	-0.242846	-52.590051	52.263418	6.849846
01453		-0.794453	0.417546	-0.372404	-0.236254	-52.508365	52.092878	6.016190
01454		-0.797133	0.414400	-0.374327	-0.229632	-52.406053	51.914901	5.195192
01455		-0.799822	0.411221	-0.376119	-0.222971	-52.293735	51.724103	4.382760
01456		-0.802450	0.408089	-0.377760	-0.216413	-52.176496	51.526726	3.594195
01457		-0.804952	0.405166	-0.379189	-0.210018	-52.077026	51.319475	2.828426
01458		-0.807230	0.402622	-0.380437	-0.203824	-52.025572	51.107686	2.073940
01459		-0.809253	0.400540	-0.381492	-0.197843	-52.034988	50.889898	1.326649
01460		-0.811037	0.398898	-0.382387	-0.192039	-52.103978	50.666332	0.581708
01461		-0.812647	0.397555	-0.383185	-0.186346	-52.213212	50.439597	-0.162577
01462		-0.814116	0.396457	-0.383930	-0.180652	-52.361350	50.207663	-0.920340
01463		-0.815503	0.395492	-0.384639	-0.174911	-52.530985	49.969285	-1.689361
01464		-0.816804	0.394600	-0.385401	-0.169083	-52.719046	49.732418	-2.477677
01465		-0.818062	0.393642	-0.386260	-0.163170	-52.904034	49.502135	-3.277581
01466		-0.819371	0.392434	-0.387232	-0.157092	-53.058745	49.276751	-4.086607
01467		-0.820836	0.390823	-0.388263	-0.150787	-53.155752	49.048333	-4.896187
01468		-0.822454	0.388781	-0.389374	-0.144248	-53.193265	48.820083	-5.708203
01469		-0.824211	0.386369	-0.390520	-0.137437	-53.181407	48.585569	-6.528853
01470		-0.825980	0.383790	-0.391710	-0.130480	-53.150938	48.352142	-7.359060
01471		-0.827670	0.381247	-0.392892	-0.123488	-53.128067	48.118623	-8.195281
01472		-0.829314	0.378726	-0.394002	-0.116476	-53.104738	47.878797	-9.028186
01473		-0.831022	0.376073	-0.394965	-0.109428	-53.049502	47.625443	-9.841536
01474		-0.832793	0.373256	-0.395804	-0.102350	-52.958393	47.362278	-10.634302
01475		-0.834553	0.370462	-0.396480	-0.095301	-52.857713	47.086188	-11.409320
01476		-0.836250	0.367768	-0.397024	-0.088345	-52.759822	46.802925	-12.167078
01477		-0.837833	0.365247	-0.397469	-0.081541	-52.676083	46.517976	-12.907651
01478		-0.839293	0.362873	-0.397868	-0.074914	-52.605075	46.238344	-13.631006
01479		-0.840658	0.360554	-0.398260	-0.068446	-52.535532	45.968445	-14.336705
01480		-0.841950	0.358157	-0.398720	-0.062175	-52.450513	45.720438	-15.018334
01481		-0.843198	0.355633	-0.399248	-0.056064	-52.343860	45.493158	-15.677535
01482		-0.844372	0.353012	-0.399880	-0.050140	-52.222954	45.291477	-16.317110
01483		-0.845468	0.350343	-0.400589	-0.044408	-52.093680	45.111842	-16.937330
01484		-0.846475	0.347624	-0.401409	-0.038852	-51.959599	44.957036	-17.543566
01485		-0.847378	0.344969	-0.402276	-0.033466	-51.834110	44.817407	-18.138181
01486		-0.848207	0.342318	-0.403196	-0.028235	-51.708462	44.693804	-18.719383
01487		-0.848992	0.339629	-0.404142	-0.023105	-51.576714	44.581331	-19.289248
01488		-0.849766	0.336875	-0.405076	-0.018084	-51.430743	44.477044	-19.841357
01489		-0.850508	0.334174	-0.405942	-0.013213	-51.283235	44.374499	-20.372818
01490		-0.851163	0.331649	-0.406764	-0.008523	-51.153326	44.274639	-20.888984
01491		-0.851730	0.329350	-0.407516	-0.003969	-51.048372	44.170860	-21.396322
01492		-0.852240	0.327210	-0.408192	0.000462	-50.957572	44.063233	-21.891248
01493		-0.852675	0.325334	-0.408755	0.004811	-50.895212	43.942759	-22.381426
01494		-0.852987	0.323754	-0.409285	0.009058	-50.871811	43.817600	-22.873832
01495		-0.853195	0.322419	-0.409791	0.013270	-50.882595	43.686063	-23.374151
01496		-0.853369	0.321117	-0.410291	0.017494	-50.898420	43.552877	-23.877352
01497		-0.853550	0.319677	-0.410834	0.021775	-50.899515	43.425652	-24.384096
01498		-0.853733	0.318031	-0.411482	0.026056	-50.878944	43.315778	-24.889457
01499		-0.853932	0.316247	-0.412158	0.030230	-50.836319	43.219078	-25.376775
01500		-0.854154	0.314295	-0.412883	0.034173	-50.764557	43.145236	-25.831232
01501		-0.854406	0.312192	-0.413630	0.037909	-50.664850	43.089913	-26.254174
01502		-0.854698	0.309935	-0.414388	0.041395	-50.534505	43.054536	-26.639324
01503		-0.854971	0.307684	-0.415168	0.044622	-50.397864	43.035739	-26.995433
01504		-0.855155	0.305645	-0.415976	0.047501	-50.282518	43.032277	-27.323275
01505		-0.855197	0.303945	-0.416839	0.050001	-50.208540	43.044330	-27.628756
01506		-0.855090	0.302584	-0.417784	0.052148	-50.178846	43.072931	-27.917441
01507		-0.854866	0.301451	-0.418829	0.053982	-50.180072	43.120791	-28.189861
01508		-0.854579	0.300386	-0.419973	0.055542	-50.190445	43.191039	-28.442108
01509		-0.854251	0.299236	-0.421282	0.056878	-50.195279	43.292316	-28.678823
01510		-0.853976	0.297771	-0.422714	0.058053	-50.159614	43.424872	-28.890950
01511		-0.853780	0.295868	-0.424296	0.059113	-50.069408	43.593016	-29.080017
01512		-0.853723	0.293413	-0.425978	0.060076	-49.904040	43.794988	-29.236799
01513		-0.853789	0.290517	-0.427709	0.060905	-49.673260	44.023892	-29.356985
01514		-0.853906	0.287359	-0.429525	0.061469	-49.401185	44.284408	-29.436993
01515		-0.853978	0.284241	-0.431421	0.061686	-49.128369	44.569978	-29.482717
01516		-0.853901	0.281508	-0.433394	0.061442	-48.900531	44.874688	-29.498417
01517		-0.853584	0.279501	-0.435426	0.060637	-48.762036	45.190156	-29.489141
01518		-0.852940	0.278507	-0.437518	0.059206	-48.753818	45.510181	-29.464342
01519		-0.851904	0.278676	-0.439691	0.057185	-48.903148	45.830165	-29.441542
01520		-0.850531	0.279847	-0.441916	0.054708	-49.190561	46.145899	-29.427454
01521		-0.848915	0.281698	-0.444168	0.051996	-49.576833	46.454541	-29.431032
01522		-0.847171	0.283859	-0.446429	0.049260	-50.014230	46.755539	-29.456070
01523		-0.845370	0.286065	-0.448709	0.046654	-50.471369	47.050837	-29.508434
01524		-0.843587	0.288062	-0.451023	0.044266	-50.914767	47.345398	-29.585088
01525		-0.841929	0.289514	-0.453376	0.042270	-51.300421	47.641676	-29.687519
01526		-0.840475	0.290161	-0.455796	0.040724	-51.592873	47.948058	-29.808670
01527		-0.839240	0.290030	-0.458247	0.039611	-51.790799	48.260678	-29.942963
01528		-0.838154	0.289374	-0.460715	0.038763	-51.923745	48.578780	-30.082251
01529		-0.837086	0.288607	-0.463199	0.037950	-52.045413	48.900574	-30.223214
01530		-0.835991	0.287946	-0.465656	0.037033	-52.178682	49.221546	-30.357033
01531		-0.834821	0.287552	-0.468077	0.035936	-52.344377	49.539560	-30.483515
01532		-0.833583	0.287467	-0.470428	0.034625	-52.543847	49.851430	-30.597376
01533		-0.832301	0.287617	-0.472711	0.033106	-52.765698	50.159588	-30.694436
01534		-0.831027	0.287918	-0.474876	0.031472	-52.995210	50.456956	-30.775058
01535		-0.829798	0.288276	-0.476917	0.029709	-53.215275	50.747129	-30.829619
01536		-0.828630	0.288680	-0.478810	0.027869	-53.423083	51.025129	-30.860273
01537		-0.827542	0.289118	-0.480533	0.025944	-53.613122	51.289913	-30.861951
01538		-0.826515	0.289631	-0.482095	0.023917	-53.791556	51.541865	-30.835803
01539		-0.825527	0.290280	-0.483498	0.021743	-53.966208	51.781566	-30.780212
01540		-0.824545	0.291149	-0.484749	0.019378	-54.149533	52.009382	-30.696720
01541		-0.823490	0.292358	-0.485910	0.016808	-54.368329	52.228119	-30.600457
01542		-0.822374	0.293817	-0.487006	0.014061	-54.613154	52.442259	-30.492715
01543		-0.821183	0.295457	-0.488096	0.011177	-54.882470	52.657953	-30.381829
01544		-0.819971	0.297155	-0.489161	0.008241	-55.157627	52.872812	-30.267217
01545		-0.818741	0.298864	-0.490219	0.005266	-55.434245	53.089856	-30.149925
01546		-0.817477	0.300577	-0.491305	0.002262	-55.715826	53.311983	-30.035349
01547		-0.816192	0.302204	-0.492446	-0.000732	-55.993523	53.542969	-29.925921
01548		-0.814953	0.303608	-0.493619	-0.003634	-56.244328	53.780540	-29.817854
01549		-0.813813	0.304618	-0.494849	-0.006343	-56.446916	54.027028	-29.713706
01550		-0.812771	0.305277	-0.496115	-0.008878	-56.604163	54.279656	-29.610810
01551		-0.811722	0.305750	-0.497490	-0.011297	-56.751807	54.543447	-29.525737
01552		-0.810631	0.306128	-0.498977	-0.013601	-56.906690	54.815408	-29.466954
01553		-0.809467	0.306404	-0.500629	-0.015805	-57.074351	55.101970	-29.439828
01554		-0.808244	0.306600	-0.502411	-0.017905	-57.255084	55.398424	-29.442680
01555		-0.806984	0.306709	-0.504288	-0.019980	-57.438145	55.706371	-29.458540
01556		-0.805788	0.306765	-0.506078	-0.022025	-57.602849	56.006114	-29.462657
01557		-0.804752	0.306723	-0.507658	-0.024060	-57.720455	56.287949	-29.427782
01558		-0.803774	0.306857	-0.509023	-0.026119	-57.837454	56.543800	-29.372880
01559		-0.802707	0.307312	-0.510319	-0.028211	-58.002426	56.784014	-29.333888
01560		-0.801481	0.308200	-0.511593	-0.030225	-58.250781	57.002628	-29.345585
01561		-0.800059	0.309479	-0.512931	-0.032102	-58.592964	57.205638	-29.427840
01562		-0.798516	0.310914	-0.514358	-0.033773	-58.994446	57.399475	-29.573151
01563		-0.796949	0.312206	-0.515911	-0.035150	-59.411014	57.592498	-29.771519
01564		-0.795480	0.313060	-0.517586	-0.036196	-59.788650	57.792297	-29.998681
01565		-0.794243	0.313263	-0.519312	-0.036870	-60.077340	57.996937	-30.226628
01566		-0.793368	0.312543	-0.521066	-0.037064	-60.226775	58.207658	-30.437851
01567		-0.792982	0.310728	-0.522764	-0.036683	-60.193784	58.416915	-30.612022
01568		-0.793097	0.307954	-0.524288	-0.035830	-59.976901	58.615376	-30.725474
01569		-0.793567	0.304621	-0.525602	-0.034645	-59.636905	58.793720	-30.791247
01570		-0.794290	0.301202	-0.526564	-0.033342	-59.227159	58.934047	-30.801305
01571		-0.795067	0.298192	-0.527173	-0.032226	-58.823447	59.036416	-30.762592
01572		-0.795784	0.295958	-0.527393	-0.031514	-58.476324	59.096674	-30.674784
01573		-0.796350	0.294710	-0.527249	-0.031335	-58.222119	59.117129	-30.545573
01574		-0.796694	0.294623	-0.526748	-0.031822	-58.087850	59.099976	-30.375439
01575		-0.796757	0.295697	-0.525978	-0.033008	-58.086788	59.056272	-30.175699
01576		-0.796612	0.297623	-0.524997	-0.034736	-58.180587	58.994265	-29.948418
01577		-0.796397	0.299835	-0.523930	-0.036709	-58.300703	58.928766	-29.700986
01578		-0.796252	0.301881	-0.522838	-0.038618	-58.390302	58.863476	-29.442509
01579		-0.796215	0.303506	-0.521819	-0.040374	-58.422273	58.811447	-29.176854
01580		-0.796283	0.304654	-0.520923	-0.041928	-58.396459	58.776536	-28.913467
01581		-0.796406	0.305377	-0.520197	-0.043338	-58.326612	58.764659	-28.657164
01582		-0.796538	0.305759	-0.519653	-0.044721	-58.223583	58.781110	-28.401733
01583		-0.796579	0.305939	-0.519361	-0.046122	-58.121865	58.831094	-28.166072
01584		-0.796493	0.306060	-0.519288	-0.047605	-58.039953	58.910116	-27.950414
01585		-0.796203	0.306271	-0.519453	-0.049262	-58.003874	59.020969	-27.759876
01586		-0.795664	0.306693	-0.519849	-0.051140	-58.033049	59.161825	-27.599307
01587		-0.794909	0.307274	-0.520455	-0.053193	-58.117966	59.329836	-27.467379
01588		-0.794056	0.307812	-0.521219	-0.055293	-58.218283	59.518679	-27.352064
01589		-0.793168	0.308188	-0.522127	-0.057342	-58.314893	59.724750	-27.252929
01590		-0.792305	0.308259	-0.523180	-0.059270	-58.383993	59.948550	-27.164733
01591		-0.791547	0.307930	-0.524320	-0.060991	-58.402001	60.182147	-27.078906
01592		-0.790928	0.307182	-0.525511	-0.062535	-58.355486	60.423938	-26.981066
01593		-0.790377	0.306144	-0.526779	-0.063914	-58.273888	60.673275	-26.888189
01594		-0.789866	0.305033	-0.528024	-0.065250	-58.175724	60.920094	-26.788530
01595		-0.789313	0.304044	-0.529249	-0.066618	-58.095843	61.163024	-26.693410
01596		-0.788708	0.303325	-0.530377	-0.068070	-58.048123	61.392436	-26.598419
01597		-0.787929	0.303185	-0.531403	-0.069692	-58.090453	61.603212	-26.527122
01598		-0.786952	0.303677	-0.532340	-0.071420	-58.242540	61.791052	-26.499816
01599		-0.785820	0.304696	-0.533179	-0.073270	-58.480412	61.959387	-26.500585
01600		-0.784785	0.305693	-0.533909	-0.074867	-58.713990	62.101838	-26.518965
01601		-0.784106	0.306074	-0.534543	-0.075900	-58.840437	62.219311	-26.530919
01602		-0.783906	0.305754	-0.534956	-0.076339	-58.818603	62.299837	-26.504491
01603		-0.784048	0.305045	-0.535129	-0.076510	-58.687127	62.351503	-26.423525
01604		-0.784342	0.304258	-0.535138	-0.076566	-58.516119	62.381469	-26.318089
01605		-0.784628	0.303669	-0.535074	-0.076419	-58.388937	62.384759	-26.255022
01606		-0.784833	0.303421	-0.534946	-0.076193	-58.328062	62.365437	-26.233907
01607		-0.784895	0.303540	-0.534824	-0.075936	-58.349505	62.332991	-26.265036
01608		-0.784843	0.303924	-0.534733	-0.075577	-58.440583	62.288736	-26.350865
01609		-0.784773	0.304310	-0.534690	-0.075052	-58.552948	62.239115	-26.471752
01610		-0.784860	0.304400	-0.534620	-0.074272	-58.615323	62.180341	-26.589890
01611		-0.785148	0.304051	-0.534533	-0.073275	-58.596415	62.120692	-26.683616
01612		-0.785663	0.303317	-0.534340	-0.072201	-58.481756	62.057964	-26.721424
01613		-0.786397	0.302271	-0.534003	-0.071079	-58.278171	61.987764	-26.701134
01614		-0.787370	0.300973	-0.533448	-0.069977	-57.980550	61.904618	-26.605844
01615		-0.788430	0.299771	-0.532677	-0.069070	-57.651264	61.807756	-26.452787
01616		-0.789525	0.298929	-0.531605	-0.068468	-57.322876	61.686461	-26.241173
01617		-0.790668	0.298402	-0.530245	-0.068119	-56.993300	61.539974	-25.977220
01618		-0.791841	0.298238	-0.528595	-0.068039	-56.671973	61.367359	-25.664965
01619		-0.792913	0.298687	-0.526696	-0.068316	-56.413389	61.170402	-25.329272
01620		-0.793803	0.299890	-0.524585	-0.068948	-56.253622	60.948977	-24.994144
01621		-0.794543	0.301671	-0.522321	-0.069832	-56.174037	60.708936	-24.665249
01622		-0.795165	0.303818	-0.519994	-0.070806	-56.157081	60.457044	-24.357794
01623		-0.795674	0.306143	-0.517721	-0.071722	-56.194327	60.202651	-24.093156
01624		-0.796163	0.308376	-0.515534	-0.072478	-56.241385	59.951219	-23.859881
01625		-0.796674	0.310335	-0.513487	-0.073033	-56.271987	59.711026	-23.651885
01626		-0.797203	0.312016	-0.511590	-0.073410	-56.285071	59.484491	-23.466774
01627		-0.797723	0.313399	-0.509894	-0.073670	-56.279759	59.281122	-23.301090
01628		-0.798173	0.314585	-0.508428	-0.073870	-56.276438	59.104401	-23.161786
01629		-0.798522	0.315614	-0.507217	-0.074038	-56.284435	58.957222	-23.052670
01630		-0.798740	0.316589	-0.506231	-0.074270	-56.312614	58.839317	-22.965076
01631		-0.798793	0.317534	-0.505507	-0.074600	-56.368899	58.755990	-22.902349
01632		-0.798728	0.318395	-0.505009	-0.075000	-56.438334	58.703189	-22.856542
01633		-0.798549	0.319119	-0.504761	-0.075495	-56.512530	58.686445	-22.822131
01634		-0.798290	0.319701	-0.504716	-0.076070	-56.584010	58.699940	-22.793012
01635		-0.797961	0.320120	-0.504870	-0.076739	-56.647490	58.744619	-22.764691
01636		-0.797571	0.320436	-0.505166	-0.077512	-56.705481	58.813627	-22.732746
01637		-0.797051	0.320755	-0.505646	-0.078405	-56.784481	58.909208	-22.713290
01638		-0.796426	0.321155	-0.506213	-0.079459	-56.883121	59.021381	-22.693507
01639		-0.795690	0.321590	-0.506905	-0.080652	-56.999597	59.154418	-22.678163
01640		-0.794905	0.321941	-0.507723	-0.081837	-57.119904	59.302691	-22.676002
01641		-0.794124	0.322092	-0.508677	-0.082894	-57.230560	59.463278	-22.694001
01642		-0.793395	0.322046	-0.509696	-0.083793	-57.322737	59.626858	-22.725077
01643		-0.792691	0.321910	-0.510744	-0.084592	-57.408885	59.789888	-22.766618
01644		-0.792012	0.321744	-0.511783	-0.085300	-57.494581	59.947379	-22.817916
01645		-0.791340	0.321591	-0.512821	-0.085874	-57.592568	60.096302	-22.891425
01646		-0.790627	0.321519	-0.513890	-0.086320	-57.722335	60.238386	-23.000109
01647		-0.789871	0.321526	-0.514998	-0.086614	-57.886629	60.372947	-23.149115
01648		-0.789077	0.321491	-0.516213	-0.086746	-58.072732	60.509850	-23.338012
01649		-0.788300	0.321230	-0.517569	-0.086697	-58.249860	60.656678	-23.554420
01650		-0.787650	0.320482	-0.519060	-0.086458	-58.363571	60.820039	-23.767992
01651		-0.787238	0.319014	-0.520672	-0.085948	-58.368104	61.000375	-23.960413
01652		-0.787275	0.316741	-0.522089	-0.085414	-58.172548	61.183084	-24.025132
01653		-0.787561	0.314253	-0.523202	-0.085163	-57.858875	61.358069	-23.964848
01654		-0.787793	0.312174	-0.524073	-0.085306	-57.560261	61.519943	-23.847889
01655		-0.787829	0.310838	-0.524727	-0.085831	-57.352660	61.660360	-23.721878
01656		-0.787634	0.310531	-0.525042	-0.086801	-57.271663	61.762009	-23.590766
01657		-0.787055	0.311497	-0.525099	-0.088234	-57.383378	61.827812	-23.497971
01658		-0.786164	0.313396	-0.525020	-0.089910	-57.654107	61.867307	-23.459426
01659		-0.785220	0.315470	-0.524921	-0.091472	-57.968687	61.892970	-23.458120
01660		-0.784457	0.317187	-0.524804	-0.092736	-58.226105	61.909095	-23.455958
01661		-0.783952	0.318225	-0.524767	-0.093656	-58.377010	61.932265	-23.437315
01662		-0.783796	0.318378	-0.524831	-0.094079	-58.391073	61.960901	-23.403169
01663		-0.784070	0.317483	-0.524987	-0.093958	-58.234341	61.995746	-23.338145
01664		-0.784753	0.315682	-0.525160	-0.093353	-57.919999	62.028503	-23.236918
01665		-0.785685	0.313387	-0.525294	-0.092490	-57.511314	62.055411	-23.106368
01666		-0.786777	0.311007	-0.525228	-0.091609	-57.051088	62.062253	-22.931613
01667		-0.787897	0.308911	-0.524901	-0.090947	-56.590947	62.046080	-22.711052
01668		-0.788968	0.307466	-0.524191	-0.090653	-56.178509	61.992375	-22.446380
01669		-0.789909	0.306830	-0.523110	-0.090855	-55.840705	61.905569	-22.139864
01670		-0.790765	0.306965	-0.521627	-0.091476	-55.571338	61.778861	-21.794836
01671		-0.791607	0.307633	-0.519811	-0.092290	-55.349009	61.612751	-21.430361
01672		-0.792541	0.308585	-0.517669	-0.093132	-55.136343	61.405049	-21.044698
01673		-0.793572	0.309659	-0.515305	-0.093892	-54.925344	61.164994	-20.654411
01674		-0.794696	0.310734	-0.512806	-0.094508	-54.710522	60.901406	-20.270332
01675		-0.795860	0.311752	-0.510296	-0.094954	-54.500862	60.627775	-19.910148
01676		-0.797025	0.312709	-0.507828	-0.095262	-54.301636	60.352126	-19.577288
01677		-0.798151	0.313603	-0.505467	-0.095449	-54.120170	60.082510	-19.278293
01678		-0.799160	0.314469	-0.503308	-0.095569	-53.972424	59.831860	-19.022735
01679		-0.800024	0.315409	-0.501335	-0.095619	-53.875935	59.595875	-18.818989
01680		-0.800743	0.316378	-0.499578	-0.095589	-53.824926	59.378680	-18.666490
01681		-0.801339	0.317231	-0.498117	-0.095387	-53.806267	59.186799	-18.573715
01682		-0.801924	0.317755	-0.496935	-0.094893	-53.781405	59.016372	-18.531253
01683		-0.802555	0.317850	-0.496017	-0.094044	-53.731985	58.864370	-18.535043
01684		-0.803243	0.317555	-0.495310	-0.092888	-53.655025	58.726843	-18.573936
01685		-0.803891	0.317092	-0.494808	-0.091522	-53.587423	58.603886	-18.656777
01686		-0.804501	0.316522	-0.494455	-0.090037	-53.527218	58.492967	-18.768119
01687		-0.805065	0.315928	-0.494204	-0.088445	-53.483966	58.387956	-18.908418
01688		-0.805542	0.315410	-0.494046	-0.086809	-53.471382	58.289187	-19.077036
01689		-0.805914	0.315050	-0.493953	-0.085187	-53.497993	58.194613	-19.270155
01690		-0.806177	0.314900	-0.493883	-0.083644	-53.563581	58.102321	-19.476872
01691		-0.806373	0.314887	-0.493824	-0.082141	-53.654476	58.010197	-19.693349
01692		-0.806578	0.314862	-0.493752	-0.080637	-53.740918	57.916884	-19.906330
01693		-0.806789	0.314813	-0.493681	-0.079144	-53.821261	57.824822	-20.114497
01694		-0.807024	0.314634	-0.493662	-0.077560	-53.888921	57.736289	-20.329813
01695		-0.807293	0.314334	-0.493666	-0.075940	-53.937975	57.651184	-20.540571
01696		-0.807566	0.314031	-0.493661	-0.074299	-53.986024	57.564131	-20.752282
01697		-0.807749	0.313902	-0.493677	-0.072732	-54.065804	57.479134	-20.974071
01698		-0.807798	0.314053	-0.493713	-0.071275	-54.194884	57.395375	-21.210813
01699		-0.807703	0.314454	-0.493812	-0.069890	-54.375592	57.315971	-21.471294
01700		-0.807540	0.314942	-0.493969	-0.068448	-54.583863	57.236716	-21.756741
01701		-0.807319	0.315431	-0.494223	-0.066947	-54.809010	57.164029	-22.064692
01702		-0.807039	0.315890	-0.494600	-0.065360	-55.049737	57.099601	-22.399128
01703		-0.806713	0.316319	-0.495080	-0.063658	-55.305744	57.039703	-22.762025
01704		-0.806359	0.316600	-0.495710	-0.061817	-55.562641	56.990843	-23.152036
01705		-0.805993	0.316716	-0.496473	-0.059839	-55.815056	56.951715	-23.564873
01706		-0.805627	0.316691	-0.497335	-0.057703	-56.064181	56.917090	-24.001141
01707		-0.805226	0.316590	-0.498303	-0.055461	-56.320698	56.888577	-24.461340
01708		-0.804832	0.316354	-0.499350	-0.053063	-56.572790	56.862213	-24.942642
01709		-0.804476	0.315909	-0.500474	-0.050450	-56.809700	56.836618	-25.445962
01710		-0.804201	0.315221	-0.501627	-0.047620	-57.018682	56.807821	-25.961457
01711		-0.803967	0.314392	-0.502795	-0.044632	-57.213431	56.775013	-26.488264
01712		-0.803771	0.313467	-0.503953	-0.041491	-57.398400	56.734544	-27.026300
01713		-0.803565	0.312555	-0.505104	-0.038255	-57.590756	56.686770	-27.578211
01714		-0.803397	0.311624	-0.506185	-0.034942	-57.774129	56.627584	-28.128429
01715		-0.803281	0.310647	-0.507193	-0.031525	-57.944176	56.555758	-28.677081
01716		-0.803258	0.309514	-0.508127	-0.027996	-58.080661	56.475055	-29.214729
01717		-0.803316	0.308333	-0.508941	-0.024377	-58.194782	56.378397	-29.740801
01718		-0.803381	0.307273	-0.509636	-0.020799	-58.310801	56.268262	-30.253319
01719		-0.803386	0.306459	-0.510250	-0.017286	-58.454658	56.145055	-30.765379
01720		-0.803362	0.305808	-0.510782	-0.013839	-58.611012	56.011629	-31.269195
01721		-0.803331	0.305234	-0.511257	-0.010391	-58.771114	55.869390	-31.769465
01722		-0.803300	0.304761	-0.511646	-0.006907	-58.936762	55.712506	-32.268386
01723		-0.803268	0.304454	-0.511915	-0.003416	-59.111641	55.536757	-32.761507
01724		-0.803222	0.304389	-0.512037	0.000040	-59.302719	55.339348	-33.244979
01725		-0.803177	0.304520	-0.512018	0.003538	-59.505564	55.117605	-33.725260
01726		-0.803225	0.304668	-0.511815	0.007161	-59.686399	54.869409	-34.191056
01727		-0.803397	0.304656	-0.511485	0.011009	-59.827832	54.601523	-34.649750
01728		-0.803786	0.304289	-0.510986	0.015166	-59.895009	54.313084	-35.090674
01729		-0.804426	0.303494	-0.510297	0.019662	-59.874667	54.004022	-35.509809
01730		-0.805284	0.302303	-0.509442	0.024458	-59.775954	53.678384	-35.910091
01731		-0.806297	0.300791	-0.508467	0.029513	-59.617942	53.340339	-36.301253
01732		-0.807459	0.298924	-0.507392	0.034744	-59.395670	52.999012	-36.674415
01733		-0.808754	0.296824	-0.506165	0.040117	-59.121382	52.646738	-37.027964
01734		-0.810158	0.294535	-0.504800	0.045502	-58.799631	52.291359	-37.351785
01735		-0.811628	0.292225	-0.503267	0.050865	-58.452779	51.924863	-37.650121
01736		-0.813115	0.289990	-0.501606	0.056039	-58.095205	51.556941	-37.915161
01737		-0.814580	0.287965	-0.499817	0.060972	-57.745753	51.184358	-38.149326
01738		-0.816027	0.286109	-0.497925	0.065665	-57.401485	50.811079	-38.353635
01739		-0.817528	0.284291	-0.495884	0.070181	-57.038579	50.434284	-38.520915
01740		-0.819086	0.282391	-0.493755	0.074561	-56.649146	50.062534	-38.657916
01741		-0.820731	0.280438	-0.491476	0.078790	-56.229120	49.689209	-38.756467
01742		-0.822375	0.278582	-0.489119	0.082791	-55.808827	49.319010	-38.827095
01743		-0.824001	0.276938	-0.486661	0.086540	-55.401365	48.945517	-38.870399
01744		-0.825603	0.275477	-0.484129	0.090061	-55.007099	48.571127	-38.891677
01745		-0.827188	0.274144	-0.481541	0.093396	-54.621619	48.197139	-38.894877
01746		-0.828732	0.272891	-0.478966	0.096567	-54.247561	47.830678	-38.889210
01747		-0.830253	0.271659	-0.476397	0.099633	-53.877571	47.470401	-38.877327
01748		-0.831766	0.270399	-0.473845	0.102570	-53.504402	47.120553	-38.854568
01749		-0.833294	0.269087	-0.471265	0.105462	-53.122742	46.773192	-38.824726
01750		-0.834873	0.267624	-0.468655	0.108290	-52.717271	46.433335	-38.779565
01751		-0.836465	0.266133	-0.466007	0.111074	-52.306283	46.093767	-38.728036
01752		-0.838025	0.264697	-0.463360	0.113790	-51.905073	45.755931	-38.676253
01753		-0.839559	0.263375	-0.460663	0.116465	-51.517647	45.410880	-38.624790
01754		-0.841033	0.262223	-0.457962	0.119049	-51.154791	45.063410	-38.575384
01755		-0.842384	0.261409	-0.455295	0.121494	-50.842386	44.712312	-38.534728
01756		-0.843609	0.260908	-0.452689	0.123790	-50.578434	44.361972	-38.502310
01757		-0.844711	0.260634	-0.450182	0.125977	-50.356169	44.017576	-38.482319
01758		-0.845735	0.260414	-0.447784	0.128090	-50.152617	43.685535	-38.470834
01759		-0.846730	0.260160	-0.445442	0.130177	-49.951644	43.361943	-38.463202
01760		-0.847706	0.259755	-0.443215	0.132223	-49.741990	43.058115	-38.457916
01761		-0.848710	0.259124	-0.441031	0.134302	-49.508611	42.766606	-38.452816
01762		-0.849721	0.258325	-0.438928	0.136325	-49.260040	42.493010	-38.443616
01763		-0.850677	0.257524	-0.436943	0.138241	-49.021073	42.236675	-38.435682
01764		-0.851580	0.256729	-0.435089	0.139996	-48.791651	42.001040	-38.423712
01765		-0.852427	0.255992	-0.433352	0.141569	-48.576325	41.783768	-38.405477
01766		-0.853243	0.255322	-0.431712	0.142870	-48.370586	41.586813	-38.367630
01767		-0.854029	0.254723	-0.430167	0.143901	-48.174714	41.409813	-38.310227
01768		-0.854823	0.254133	-0.428698	0.144610	-47.975862	41.255747	-38.221395
01769		-0.855606	0.253583	-0.427331	0.144989	-47.780825	41.126295	-38.104328
01770		-0.856425	0.253035	-0.426012	0.144996	-47.577135	41.019528	-37.946088
01771		-0.857293	0.252545	-0.424693	0.144590	-47.365950	40.930331	-37.739049
01772		-0.858222	0.252196	-0.423330	0.143679	-47.151147	40.855400	-37.471112
01773		-0.859132	0.252251	-0.421945	0.142212	-46.968500	40.788358	-37.149712
01774		-0.859974	0.252842	-0.420596	0.140052	-46.836800	40.736530	-36.769804
01775		-0.860736	0.254015	-0.419282	0.137156	-46.760413	40.700403	-36.327761
01776		-0.861466	0.255696	-0.417915	0.133582	-46.723687	40.671828	-35.819206
01777		-0.862205	0.257732	-0.416465	0.129358	-46.704869	40.653071	-35.238742
01778		-0.862960	0.260076	-0.414909	0.124540	-46.697854	40.641158	-34.589084
01779		-0.863788	0.262527	-0.413225	0.119143	-46.674265	40.641301	-33.861490
01780		-0.864730	0.264944	-0.411360	0.113264	-46.613880	40.648334	-33.056844
01781		-0.865829	0.267136	-0.409319	0.106939	-46.492544	40.667320	-32.171456
01782		-0.867061	0.269167	-0.407075	0.100217	-46.318904	40.690192	-31.212266
01783		-0.868374	0.271159	-0.404670	0.092964	-46.109013	40.722289	-30.172550
01784		-0.869709	0.273298	-0.402071	0.085161	-45.886170	40.754694	-29.056409
01785		-0.871056	0.275558	-0.399294	0.076767	-45.647163	40.791439	-27.859593
01786		-0.872391	0.277974	-0.396311	0.067836	-45.398133	40.825938	-26.588822
01787		-0.873744	0.280379	-0.393124	0.058413	-45.118078	40.860885	-25.242383
01788		-0.875102	0.282790	-0.389701	0.048578	-44.811154	40.887946	-23.829154
01789		-0.876476	0.285033	-0.386102	0.038359	-44.458870	40.915871	-22.349254
01790		-0.877846	0.287147	-0.382310	0.027770	-44.067029	40.940160	-20.805594
01791		-0.879165	0.289169	-0.378377	0.016778	-43.643881	40.965826	-19.200278
01792		-0.880336	0.291422	-0.374235	0.005385	-43.233514	40.977784	-17.546208
01793		-0.881340	0.293994	-0.369818	-0.006503	-42.842586	40.972270	-15.832115
01794		-0.882170	0.296831	-0.365121	-0.018800	-42.468817	40.946902	-14.067318
01795		-0.882903	0.299638	-0.360152	-0.031447	-42.073887	40.904852	-12.245130
01796		-0.883596	0.302195	-0.354929	-0.044290	-41.634259	40.843604	-10.375703
01797		-0.884312	0.304293	-0.349445	-0.057324	-41.120586	40.762345	-8.448585
01798		-0.884944	0.306203	-0.343726	-0.070467	-40.580051	40.655712	-6.492406
01799		-0.885325	0.308344	-0.337799	-0.083756	-40.077262	40.524697	-4.528410
01800		-0.885184	0.311497	-0.331625	-0.097182	-39.729597	40.364008	-2.599100
01801		-0.884553	0.315532	-0.325160	-0.110799	-39.515759	40.177993	-0.688483
01802		-0.883562	0.320038	-0.318447	-0.124441	-39.385163	39.969986	1.201624
01803		-0.882402	0.324437	-0.311528	-0.138052	-39.256106	39.744446	3.093336
01804		-0.881064	0.328699	-0.304528	-0.151477	-39.135386	39.508899	4.961389
01805		-0.879656	0.332586	-0.297445	-0.164673	-38.989237	39.259597	6.813434
01806		-0.878171	0.336087	-0.290389	-0.177584	-38.820718	39.005110	8.637520
01807		-0.876638	0.339159	-0.283341	-0.190249	-38.621105	38.742727	10.442212
01808		-0.874885	0.342313	-0.276258	-0.202680	-38.464434	38.473111	12.204746
01809		-0.872901	0.345632	-0.269022	-0.214965	-38.356895	38.188973	13.938165
01810		-0.870735	0.348991	-0.261683	-0.227043	-38.283696	37.892672	15.639037
01811		-0.868522	0.352055	-0.254210	-0.238964	-38.193866	37.577238	17.331799
01812		-0.866052	0.355358	-0.246529	-0.250796	-38.162378	37.247383	19.002325
01813		-0.863187	0.359198	-0.238545	-0.262644	-38.228287	36.905779	20.654416
01814		-0.859932	0.363529	-0.230341	-0.274422	-38.388881	36.560787	22.277508
01815		-0.856621	0.367594	-0.221979	-0.286007	-38.540228	36.197697	23.889146
01816		-0.853366	0.371093	-0.213818	-0.297219	-38.645425	35.839881	25.467336
01817		-0.850330	0.373697	-0.205889	-0.308057	-38.656658	35.477778	27.025097
01818		-0.847418	0.375730	-0.198139	-0.318513	-38.620017	35.111024	28.547788
01819		-0.844563	0.377459	-0.190362	-0.328635	-38.572497	34.724992	30.036190
01820		-0.841667	0.379067	-0.182635	-0.338453	-38.537573	34.334772	31.484608
01821		-0.838856	0.380309	-0.174986	-0.347945	-38.481078	33.933368	32.899085
01822		-0.836153	0.381155	-0.167640	-0.357022	-38.397775	33.539159	34.262897
01823		-0.833724	0.381339	-0.160765	-0.365567	-38.250720	33.153050	35.565599
01824		-0.831689	0.380678	-0.154561	-0.373483	-38.012998	32.782171	36.795457
01825		-0.830100	0.379034	-0.149057	-0.380854	-37.660638	32.423740	37.966821
01826		-0.828842	0.376764	-0.144214	-0.387650	-37.241608	32.084293	39.063407
01827		-0.827813	0.374194	-0.139755	-0.393921	-36.802500	31.748195	40.086956
01828		-0.826813	0.371752	-0.135542	-0.399762	-36.398598	31.423510	41.039343
01829		-0.825926	0.369308	-0.131615	-0.405137	-36.011319	31.107759	41.919476
01830		-0.825188	0.366877	-0.128151	-0.409930	-35.639669	30.816132	42.708533
01831		-0.824635	0.364370	-0.125030	-0.414221	-35.271135	30.535192	43.422672
01832		-0.824185	0.361948	-0.122164	-0.418078	-34.925584	30.266007	44.068345
01833		-0.823859	0.359571	-0.119484	-0.421531	-34.598208	30.001062	44.652324
01834		-0.823617	0.357266	-0.117148	-0.424608	-34.285012	29.759947	45.175219
01835		-0.823503	0.354885	-0.115160	-0.427361	-33.964427	29.537789	45.648544
01836		-0.823539	0.352353	-0.113684	-0.429776	-33.620977	29.347963	46.070125
01837		-0.823641	0.349918	-0.112435	-0.431893	-33.293584	29.174179	46.443719
01838		-0.823681	0.347905	-0.111240	-0.433747	-33.027254	29.016265	46.768176
01839		-0.823695	0.346305	-0.109982	-0.435320	-32.824983	28.861268	47.043573
01840		-0.823740	0.344986	-0.108807	-0.436576	-32.665739	28.716932	47.266622
01841		-0.824027	0.343400	-0.107936	-0.437500	-32.473752	28.578284	47.446117
01842		-0.824625	0.341239	-0.107596	-0.438147	-32.200423	28.455613	47.594368
01843		-0.825475	0.338544	-0.107644	-0.438625	-31.852850	28.340038	47.727105
01844		-0.826354	0.335734	-0.107892	-0.439068	-31.485516	28.237908	47.854641
01845		-0.827120	0.333077	-0.108097	-0.439598	-31.136593	28.142063	47.990336
01846		-0.827718	0.330721	-0.108248	-0.440215	-30.824318	28.058564	48.130886
01847		-0.828062	0.328806	-0.108189	-0.441016	-30.568734	27.981795	48.287982
01848		-0.828179	0.327228	-0.108058	-0.442002	-30.351431	27.920960	48.462903
01849		-0.828164	0.325729	-0.107959	-0.443158	-30.137522	27.873091	48.658619
01850		-0.827980	0.324474	-0.107890	-0.444439	-29.948122	27.844817	48.865135
01851		-0.827706	0.323471	-0.107740	-0.445715	-29.792871	27.820622	49.065796
01852		-0.827316	0.322863	-0.107410	-0.446957	-29.693851	27.796724	49.254355
01853		-0.826640	0.323231	-0.106459	-0.448167	-29.739071	27.757478	49.422349
01854		-0.825603	0.324774	-0.104719	-0.449373	-29.958561	27.697416	49.571005
01855		-0.824328	0.327095	-0.102452	-0.450551	-30.294544	27.623174	49.704333
01856		-0.823070	0.329452	-0.100134	-0.451653	-30.639639	27.544023	49.828143
01857		-0.822068	0.331220	-0.098184	-0.452612	-30.903360	27.468206	49.942661
01858		-0.821371	0.332283	-0.096715	-0.453415	-31.067199	27.400067	50.046636
01859		-0.820902	0.332905	-0.095493	-0.454066	-31.172702	27.329238	50.137152
01860		-0.820668	0.333066	-0.094605	-0.454556	-31.213953	27.262821	50.212171
01861		-0.820658	0.332897	-0.093926	-0.454839	-31.213293	27.193104	50.263673
01862		-0.820723	0.332727	-0.093295	-0.454975	-31.215038	27.123118	50.294500
01863		-0.820801	0.332780	-0.092543	-0.454950	-31.253625	27.046560	50.299765
01864		-0.820922	0.332933	-0.091779	-0.454774	-31.309228	26.968849	50.282475
01865		-0.821125	0.333023	-0.091062	-0.454485	-31.358752	26.888384	50.250580
01866		-0.821504	0.332728	-0.090696	-0.454090	-31.350567	26.820088	50.208295
01867		-0.821992	0.332122	-0.090708	-0.453648	-31.290878	26.772882	50.161396
01868		-0.822522	0.331369	-0.090999	-0.453180	-31.202588	26.746069	50.110608
01869		-0.823080	0.330491	-0.091520	-0.452702	-31.090235	26.736251	50.058246
01870		-0.823576	0.329667	-0.092076	-0.452287	-30.980889	26.735488	50.012808
01871		-0.823924	0.329114	-0.092579	-0.451954	-30.903884	26.746537	49.973149
01872		-0.824203	0.328611	-0.093055	-0.451713	-30.831106	26.760854	49.945475
01873		-0.824260	0.328502	-0.093241	-0.451651	-30.812249	26.772250	49.936932
01874		-0.823949	0.329095	-0.092973	-0.451841	-30.888534	26.782666	49.953000
01875		-0.823341	0.330165	-0.092334	-0.452301	-31.029357	26.789341	50.000001
01876		-0.822625	0.331232	-0.091599	-0.452971	-31.167571	26.793827	50.077088
01877		-0.821931	0.331975	-0.090982	-0.453811	-31.256867	26.799481	50.183303
01878		-0.821110	0.332812	-0.090179	-0.454843	-31.359645	26.798122	50.316165
01879		-0.820069	0.334094	-0.089032	-0.456006	-31.526069	26.790018	50.461846
01880		-0.819112	0.335134	-0.087956	-0.457170	-31.660730	26.776885	50.612243
01881		-0.818322	0.335737	-0.087116	-0.458303	-31.734182	26.763960	50.765256
01882		-0.817625	0.336172	-0.086318	-0.459377	-31.787712	26.744400	50.913528
01883		-0.816920	0.336667	-0.085513	-0.460417	-31.849754	26.726313	51.056053
01884		-0.816267	0.337124	-0.084773	-0.461378	-31.906973	26.710172	51.187795
01885		-0.815682	0.337449	-0.084266	-0.462267	-31.940675	26.708439	51.309443
01886		-0.815137	0.337698	-0.083858	-0.463121	-31.962231	26.711614	51.426665
01887		-0.814629	0.337872	-0.083502	-0.463950	-31.973390	26.715337	51.541522
01888		-0.814179	0.337931	-0.083143	-0.464760	-31.971521	26.711626	51.656367
01889		-0.813841	0.337823	-0.082883	-0.465476	-31.948343	26.705444	51.760631
01890		-0.813471	0.337794	-0.082355	-0.466238	-31.944838	26.677710	51.873143
01891		-0.812650	0.338649	-0.081088	-0.467270	-32.070586	26.632936	52.013831
01892		-0.811767	0.339476	-0.079742	-0.468435	-32.192627	26.584022	52.174911
01893		-0.811250	0.339584	-0.078935	-0.469387	-32.212258	26.542787	52.314793
01894		-0.811122	0.338863	-0.078754	-0.470160	-32.111460	26.512820	52.439091
01895		-0.811112	0.338020	-0.078616	-0.470807	-31.998176	26.475624	52.548045
01896		-0.811015	0.337473	-0.078218	-0.471432	-31.932173	26.427398	52.651318
01897		-0.810833	0.337209	-0.077670	-0.472025	-31.907478	26.378348	52.746024
01898		-0.811146	0.335884	-0.077910	-0.472391	-31.729076	26.342159	52.821239
01899		-0.811995	0.333480	-0.079138	-0.472432	-31.389201	26.334588	52.861160
01900		-0.813176	0.330380	-0.081092	-0.472247	-30.941602	26.354699	52.875908
01901		-0.814567	0.326833	-0.083410	-0.471914	-30.429789	26.382438	52.876167
01902		-0.815494	0.324198	-0.085137	-0.471824	-30.044661	26.409597	52.898997
01903		-0.815566	0.323253	-0.085973	-0.472195	-29.884599	26.455978	52.960783
01904		-0.815523	0.322594	-0.086533	-0.472617	-29.769086	26.491611	53.026750
01905		-0.815658	0.321626	-0.087229	-0.472917	-29.614611	26.519497	53.081171
01906		-0.815891	0.320538	-0.087950	-0.473120	-29.447975	26.539878	53.124410
01907		-0.816157	0.319390	-0.088795	-0.473279	-29.269872	26.568121	53.161893
01908		-0.816575	0.317818	-0.089996	-0.473390	-29.027299	26.607728	53.198259
01909		-0.817050	0.316196	-0.091287	-0.473409	-28.777559	26.650872	53.222455
01910		-0.817377	0.315059	-0.092170	-0.473432	-28.603125	26.679092	53.241237
01911		-0.817538	0.314313	-0.092706	-0.473544	-28.487772	26.696512	53.267514
01912		-0.817642	0.313684	-0.093078	-0.473710	-28.391861	26.705086	53.300480
01913		-0.817646	0.313285	-0.093272	-0.473928	-28.329463	26.710040	53.337493
01914		-0.817602	0.313015	-0.093332	-0.474171	-28.287631	26.709128	53.376462
01915		-0.817549	0.312884	-0.093330	-0.474350	-28.266768	26.707533	53.404117
01916		-0.817504	0.312924	-0.093237	-0.474418	-28.273679	26.702483	53.413634
01917		-0.817469	0.313058	-0.093125	-0.474411	-28.294727	26.698165	53.410856
01918		-0.817408	0.313361	-0.092939	-0.474354	-28.340509	26.693988	53.398195
01919		-0.817329	0.313670	-0.092914	-0.474291	-28.379745	26.706730	53.383171
01920		-0.817305	0.313761	-0.093142	-0.474226	-28.381931	26.733292	53.370140
01921		-0.817289	0.313781	-0.093467	-0.474177	-28.370739	26.766459	53.359975
01922		-0.817263	0.313828	-0.093769	-0.474132	-28.363700	26.798882	53.349945
01923		-0.817175	0.313887	-0.094048	-0.474188	-28.355921	26.832934	53.354116
01924		-0.817016	0.314155	-0.094140	-0.474267	-28.380584	26.860190	53.358597
01925		-0.816750	0.314599	-0.094190	-0.474421	-28.425483	26.895473	53.370095
01926		-0.816503	0.315023	-0.094248	-0.474553	-28.468305	26.929759	53.379023
01927		-0.816129	0.315681	-0.094206	-0.474767	-28.540641	26.969713	53.395236
01928		-0.815727	0.316460	-0.094056	-0.474970	-28.632471	27.004870	53.408267
01929		-0.815380	0.317147	-0.093933	-0.475131	-28.713657	27.036250	53.417126
01930		-0.815112	0.317689	-0.093798	-0.475256	-28.779569	27.057095	53.424183
