// General information: 
//  MT Manager version: 2022.2.0 
//  XDA version: 2022.2.0 build 7381 rev 124627 built on 2023-07-19
// Device information: 
//  DeviceId: 10B4151C
//  ProductCode: MTW2-3A7G6
//  Firmware Version: 4.14.0
//  Hardware Version: 3.0.0
// Device settings: 
//  Filter Profile: human(46.1)
//  Option Flags: Orientation Smoother Disabled, Position/Velocity Smoother Disabled, Continuous Zero Rotation Update Disabled, AHS Disabled, ICC Disabled
// Coordinate system: ENU
PacketCounter	SampleTimeFine	Quat_q0	Quat_q1	Quat_q2	Quat_q3	Roll	Pitch	Yaw
00370		0.324982	0.540348	-0.191597	0.752131	10.417945	-69.612198	126.010790
00371		0.324946	0.540096	-0.191756	0.752287	10.324223	-69.592391	126.092148
00372		0.324901	0.539882	-0.191897	0.752425	10.240701	-69.575898	126.166018
00373		0.324789	0.539700	-0.191986	0.752580	10.161327	-69.561110	126.246307
00374		0.324662	0.539517	-0.192060	0.752747	10.082019	-69.545425	126.329228
00375		0.324545	0.539354	-0.192121	0.752899	10.011564	-69.531152	126.403638
00376		0.324426	0.539201	-0.192223	0.753034	9.934404	-69.520509	126.481532
00377		0.324315	0.539087	-0.192362	0.753128	9.859665	-69.516768	126.553537
00378		0.324207	0.538982	-0.192534	0.753206	9.780671	-69.516021	126.626836
00379		0.324082	0.538879	-0.192692	0.753293	9.701595	-69.514920	126.702812
00380		0.323930	0.538796	-0.192849	0.753377	9.621360	-69.516460	126.782709
00381		0.323762	0.538711	-0.192984	0.753476	9.542356	-69.516567	126.864733
00382		0.323596	0.538632	-0.193089	0.753577	9.470837	-69.515467	126.941479
00383		0.323462	0.538508	-0.193188	0.753697	9.397822	-69.508197	127.017127
00384		0.323332	0.538395	-0.193295	0.753807	9.326312	-69.502586	127.090256
00385		0.323179	0.538301	-0.193385	0.753916	9.257659	-69.498570	127.164231
00386		0.322992	0.538235	-0.193450	0.754027	9.193076	-69.496885	127.239512
00387		0.322846	0.538189	-0.193531	0.754101	9.137547	-69.497991	127.300818
00388		0.322716	0.538144	-0.193636	0.754162	9.080592	-69.500426	127.360174
00389		0.322646	0.538086	-0.193842	0.754180	9.011806	-69.506670	127.417382
00390		0.322605	0.538032	-0.194057	0.754181	8.948004	-69.513540	127.466263
00391		0.322572	0.537965	-0.194264	0.754190	8.884504	-69.518206	127.514680
00392		0.322501	0.537922	-0.194444	0.754205	8.823784	-69.524692	127.566189
00393		0.322442	0.537883	-0.194624	0.754212	8.766573	-69.531478	127.613204
00394		0.322404	0.537855	-0.194813	0.754199	8.713795	-69.539886	127.653102
00395		0.322388	0.537816	-0.194981	0.754190	8.667788	-69.545436	127.686106
00396		0.322387	0.537786	-0.195191	0.754157	8.617674	-69.554474	127.718317
00397		0.322455	0.537757	-0.195440	0.754084	8.573396	-69.565151	127.735316
00398		0.322561	0.537717	-0.195727	0.753993	8.526693	-69.576319	127.747846
00399		0.322681	0.537695	-0.196019	0.753882	8.485342	-69.589808	127.753686
00400		0.322812	0.537707	-0.196309	0.753742	8.453226	-69.607239	127.749635
00401		0.322956	0.537733	-0.196595	0.753587	8.427854	-69.625949	127.738288
00402		0.323068	0.537789	-0.196830	0.753438	8.412637	-69.645686	127.724122
00403		0.323177	0.537837	-0.197032	0.753304	8.401894	-69.662540	127.708454
00404		0.323283	0.537898	-0.197234	0.753162	8.393407	-69.680926	127.690944
00405		0.323396	0.537924	-0.197404	0.753050	8.386066	-69.693024	127.673987
00406		0.323476	0.537964	-0.197544	0.752951	8.380934	-69.705404	127.660537
00407		0.323536	0.538005	-0.197644	0.752869	8.380581	-69.715823	127.647382
00408		0.323595	0.538043	-0.197704	0.752800	8.387943	-69.723428	127.629998
00409		0.323659	0.538079	-0.197760	0.752733	8.396391	-69.730408	127.611530
00410		0.323732	0.538124	-0.197815	0.752655	8.408931	-69.738398	127.588212
00411		0.323793	0.538172	-0.197848	0.752586	8.424128	-69.745610	127.565123
00412		0.323857	0.538225	-0.197853	0.752519	8.446932	-69.751571	127.536645
00413		0.323909	0.538294	-0.197841	0.752450	8.474377	-69.758745	127.506069
00414		0.323912	0.538368	-0.197830	0.752399	8.492784	-69.767037	127.489024
00415		0.323889	0.538448	-0.197770	0.752368	8.516868	-69.773298	127.472811
00416		0.323836	0.538525	-0.197718	0.752348	8.532946	-69.780253	127.466482
00417		0.323744	0.538601	-0.197675	0.752346	8.538672	-69.787819	127.473339
00418		0.323613	0.538690	-0.197609	0.752355	8.543882	-69.796239	127.486174
00419		0.323493	0.538774	-0.197549	0.752363	8.549372	-69.804141	127.497298
00420		0.323380	0.538823	-0.197549	0.752376	8.536225	-69.811356	127.520895
00421		0.323299	0.538874	-0.197568	0.752369	8.526249	-69.819637	127.536993
00422		0.323207	0.538906	-0.197634	0.752369	8.499836	-69.828542	127.566400
00423		0.323153	0.538956	-0.197690	0.752341	8.487317	-69.838663	127.579481
00424		0.323074	0.539027	-0.197771	0.752303	8.468495	-69.853045	127.599149
00425		0.322986	0.539094	-0.197838	0.752275	8.450318	-69.866261	127.620131
00426		0.322899	0.539135	-0.197942	0.752255	8.418943	-69.878522	127.650801
00427		0.322776	0.539167	-0.198010	0.752267	8.385902	-69.887923	127.689442
00428		0.322623	0.539213	-0.198039	0.752292	8.357590	-69.896990	127.729348
00429		0.322450	0.539241	-0.198040	0.752347	8.327458	-69.902273	127.775259
00430		0.322259	0.539296	-0.198017	0.752395	8.304350	-69.909781	127.817847
00431		0.322032	0.539353	-0.197952	0.752468	8.283063	-69.915358	127.865363
00432		0.321807	0.539431	-0.197899	0.752523	8.263862	-69.924030	127.909942
00433		0.321611	0.539494	-0.197883	0.752565	8.239846	-69.933028	127.953360
00434		0.321470	0.539541	-0.197923	0.752582	8.211814	-69.942637	127.991034
00435		0.321365	0.539583	-0.198039	0.752566	8.173985	-69.955915	128.028805
00436		0.321282	0.539584	-0.198234	0.752549	8.115751	-69.968625	128.077986
00437		0.321229	0.539591	-0.198430	0.752515	8.064187	-69.981739	128.117845
00438		0.321171	0.539608	-0.198650	0.752470	8.008772	-69.997596	128.160006
00439		0.321154	0.539599	-0.198862	0.752428	7.957959	-70.009364	128.194412
00440		0.321149	0.539597	-0.199089	0.752371	7.907801	-70.022808	128.225743
00441		0.321130	0.539596	-0.199270	0.752332	7.865085	-70.033724	128.254941
00442		0.321118	0.539593	-0.199479	0.752284	7.817096	-70.045951	128.286257
00443		0.321098	0.539578	-0.199655	0.752256	7.772387	-70.054845	128.317773
00444		0.321060	0.539586	-0.199770	0.752236	7.741247	-70.063137	128.342669
00445		0.320960	0.539603	-0.199792	0.752261	7.719059	-70.067484	128.372095
00446		0.320838	0.539615	-0.199831	0.752294	7.687889	-70.072556	128.410995
00447		0.320718	0.539619	-0.199829	0.752343	7.664122	-70.074206	128.445685
00448		0.320562	0.539631	-0.199812	0.752405	7.637803	-70.076231	128.487444
00449		0.320394	0.539654	-0.199794	0.752465	7.611187	-70.079671	128.530844
00450		0.320233	0.539656	-0.199791	0.752533	7.578785	-70.081322	128.577972
00451		0.320122	0.539645	-0.199819	0.752580	7.547370	-70.082773	128.616743
00452		0.320045	0.539621	-0.199868	0.752618	7.515940	-70.083460	128.650794
00453		0.319975	0.539583	-0.199961	0.752650	7.473718	-70.085068	128.691086
00454		0.319916	0.539551	-0.200094	0.752662	7.426101	-70.089573	128.732369
00455		0.319870	0.539501	-0.200203	0.752689	7.382909	-70.090341	128.770099
00456		0.319780	0.539480	-0.200302	0.752716	7.338392	-70.094489	128.814039
00457		0.319649	0.539492	-0.200337	0.752753	7.306216	-70.099379	128.855078
00458		0.319497	0.539533	-0.200357	0.752783	7.278460	-70.107069	128.895144
00459		0.319389	0.539552	-0.200370	0.752812	7.256874	-70.111250	128.925393
00460		0.319267	0.539551	-0.200404	0.752856	7.223735	-70.114207	128.966562
00461		0.319149	0.539560	-0.200439	0.752890	7.193393	-70.118587	129.004598
00462		0.319061	0.539531	-0.200519	0.752927	7.151698	-70.120495	129.047180
00463		0.318997	0.539498	-0.200640	0.752945	7.105638	-70.124262	129.088352
00464		0.318970	0.539483	-0.200817	0.752920	7.058345	-70.133085	129.122972
00465		0.318972	0.539458	-0.201043	0.752877	7.004527	-70.143302	129.157352
00466		0.319050	0.539401	-0.201365	0.752799	6.939613	-70.154543	129.187599
00467		0.319152	0.539336	-0.201691	0.752715	6.876749	-70.164808	129.213181
00468		0.319219	0.539256	-0.202030	0.752653	6.801185	-70.174208	129.253416
00469		0.319270	0.539189	-0.202299	0.752607	6.739912	-70.181385	129.286799
00470		0.319286	0.539116	-0.202548	0.752585	6.674415	-70.186893	129.329241
00471		0.319250	0.539075	-0.202687	0.752593	6.628416	-70.190258	129.366313
00472		0.319177	0.539043	-0.202793	0.752618	6.583359	-70.193244	129.408576
00473		0.319111	0.538995	-0.202883	0.752656	6.540247	-70.193134	129.449572
00474		0.319091	0.538926	-0.203035	0.752673	6.489298	-70.193694	129.488893
00475		0.319092	0.538847	-0.203217	0.752680	6.434142	-70.194496	129.527843
00476		0.319121	0.538763	-0.203395	0.752680	6.384676	-70.194329	129.559006
00477		0.319133	0.538693	-0.203607	0.752668	6.326915	-70.197869	129.597104
00478		0.319114	0.538641	-0.203825	0.752654	6.264754	-70.204393	129.642105
00479		0.319076	0.538583	-0.203984	0.752668	6.210540	-70.206850	129.685741
00480		0.319054	0.538512	-0.204160	0.752681	6.153169	-70.208531	129.729498
00481		0.319089	0.538386	-0.204374	0.752698	6.089115	-70.205133	129.771307
00482		0.319134	0.538271	-0.204585	0.752704	6.029448	-70.202781	129.808003
00483		0.319167	0.538172	-0.204782	0.752707	5.973991	-70.201686	129.843027
00484		0.319158	0.538112	-0.204912	0.752718	5.931826	-70.201929	129.874467
00485		0.319125	0.538065	-0.205006	0.752740	5.895016	-70.201788	129.905827
00486		0.319106	0.538007	-0.205101	0.752764	5.858798	-70.200212	129.935214
00487		0.319131	0.537921	-0.205232	0.752779	5.818862	-70.197033	129.961015
00488		0.319143	0.537848	-0.205350	0.752794	5.780945	-70.194767	129.987200
00489		0.319138	0.537788	-0.205452	0.752811	5.746001	-70.193244	130.013422
00490		0.319094	0.537726	-0.205551	0.752847	5.702542	-70.191587	130.051913
00491		0.319067	0.537652	-0.205654	0.752883	5.659934	-70.188509	130.087510
00492		0.319050	0.537577	-0.205761	0.752915	5.618394	-70.185542	130.120919
00493		0.319029	0.537498	-0.205846	0.752957	5.580113	-70.180823	130.153215
00494		0.319026	0.537419	-0.205918	0.752995	5.548481	-70.175102	130.178235
00495		0.319040	0.537333	-0.205987	0.753031	5.519667	-70.168358	130.199262
00496		0.319017	0.537292	-0.206018	0.753061	5.500244	-70.165202	130.217669
00497		0.318976	0.537267	-0.206015	0.753098	5.487400	-70.162201	130.234273
00498		0.318912	0.537243	-0.205986	0.753150	5.475605	-70.157991	130.254004
00499		0.318817	0.537216	-0.205899	0.753234	5.469842	-70.150173	130.275399
00500		0.318666	0.537188	-0.205782	0.753349	5.458788	-70.140993	130.309550
00501		0.318498	0.537182	-0.205616	0.753470	5.459104	-70.131829	130.338253
00502		0.318342	0.537195	-0.205444	0.753573	5.466913	-70.124631	130.359105
00503		0.318244	0.537206	-0.205369	0.753627	5.465026	-70.122385	130.376160
00504		0.318196	0.537204	-0.205367	0.753649	5.455034	-70.122377	130.390511
00505		0.318218	0.537191	-0.205427	0.753633	5.443938	-70.124056	130.394475
00506		0.318255	0.537155	-0.205509	0.753621	5.426625	-70.124012	130.401213
00507		0.318309	0.537104	-0.205620	0.753604	5.403777	-70.123699	130.409368
00508		0.318306	0.537069	-0.205690	0.753611	5.381024	-70.123404	130.426264
00509		0.318277	0.537069	-0.205696	0.753621	5.373554	-70.124005	130.435693
00510		0.318240	0.537077	-0.205673	0.753638	5.372406	-70.123878	130.442220
00511		0.318188	0.537057	-0.205645	0.753682	5.363972	-70.120135	130.457539
00512		0.318138	0.537053	-0.205616	0.753713	5.359160	-70.118393	130.469145
00513		0.318124	0.537038	-0.205645	0.753722	5.346834	-70.118215	130.480118
00514		0.318119	0.537011	-0.205683	0.753733	5.332403	-70.117149	130.491582
00515		0.318114	0.536985	-0.205701	0.753749	5.322365	-70.114916	130.500351
00516		0.318072	0.536974	-0.205723	0.753769	5.306787	-70.115120	130.517734
00517		0.318025	0.536982	-0.205696	0.753790	5.304496	-70.114897	130.526546
00518		0.317960	0.536992	-0.205722	0.753804	5.286944	-70.118010	130.547803
00519		0.317918	0.537007	-0.205758	0.753801	5.272857	-70.122273	130.562736
00520		0.317872	0.537024	-0.205797	0.753797	5.258001	-70.127076	130.578477
00521		0.317822	0.537042	-0.205825	0.753798	5.244708	-70.131244	130.594050
00522		0.317785	0.537057	-0.205873	0.753790	5.229070	-70.136096	130.609065
00523		0.317736	0.537052	-0.205928	0.753799	5.205719	-70.138967	130.632104
00524		0.317710	0.537020	-0.206013	0.753809	5.175527	-70.140167	130.657084
00525		0.317698	0.537000	-0.206084	0.753809	5.153266	-70.141788	130.674328
00526		0.317661	0.536991	-0.206210	0.753796	5.116001	-70.148232	130.704031
00527		0.317634	0.536972	-0.206306	0.753796	5.085407	-70.151470	130.728811
00528		0.317591	0.536940	-0.206389	0.753813	5.051886	-70.152580	130.758839
00529		0.317557	0.536887	-0.206498	0.753836	5.010376	-70.152375	130.793685
00530		0.317495	0.536852	-0.206604	0.753858	4.967389	-70.154552	130.832830
00531		0.317406	0.536816	-0.206679	0.753901	4.925159	-70.154850	130.876457
00532		0.317307	0.536772	-0.206769	0.753949	4.876134	-70.155231	130.926219
00533		0.317242	0.536715	-0.206840	0.753997	4.836197	-70.152576	130.965529
00534		0.317176	0.536667	-0.206949	0.754029	4.788880	-70.153189	131.008994
00535		0.317144	0.536629	-0.207090	0.754031	4.743831	-70.156667	131.044609
00536		0.317146	0.536582	-0.207260	0.754017	4.697590	-70.160456	131.075916
00537		0.317162	0.536514	-0.207473	0.753999	4.640835	-70.164129	131.112490
00538		0.317143	0.536467	-0.207649	0.753993	4.588590	-70.168317	131.151136
00539		0.317085	0.536410	-0.207790	0.754019	4.534661	-70.169615	131.197819
00540		0.316984	0.536369	-0.207864	0.754071	4.489140	-70.169241	131.245753
00541		0.316868	0.536339	-0.207886	0.754134	4.454479	-70.167447	131.288562
00542		0.316743	0.536297	-0.207888	0.754216	4.419871	-70.162931	131.333781
00543		0.316627	0.536257	-0.207915	0.754286	4.382015	-70.160141	131.379333
00544		0.316530	0.536211	-0.207971	0.754344	4.340786	-70.158136	131.424059
00545		0.316464	0.536162	-0.208061	0.754381	4.297682	-70.157490	131.465012
00546		0.316405	0.536133	-0.208153	0.754402	4.259346	-70.159328	131.500554
00547		0.316366	0.536097	-0.208285	0.754407	4.214988	-70.162594	131.536905
00548		0.316351	0.536056	-0.208437	0.754401	4.170148	-70.166117	131.569792
00549		0.316359	0.535995	-0.208652	0.754381	4.112469	-70.170632	131.607957
00550		0.316382	0.535915	-0.208848	0.754374	4.058813	-70.171557	131.642276
00551		0.316402	0.535838	-0.209059	0.754362	4.001500	-70.173567	131.679211
00552		0.316412	0.535768	-0.209274	0.754347	3.942590	-70.176988	131.718318
00553		0.316411	0.535709	-0.209454	0.754340	3.890863	-70.179675	131.754413
00554		0.316397	0.535652	-0.209602	0.754345	3.844525	-70.181025	131.788870
00555		0.316356	0.535611	-0.209698	0.754365	3.806914	-70.181461	131.821684
00556		0.316340	0.535579	-0.209767	0.754375	3.782236	-70.181362	131.841616
00557		0.316311	0.535587	-0.209793	0.754374	3.771442	-70.184003	131.852867
00558		0.316278	0.535591	-0.209787	0.754387	3.766748	-70.184325	131.861115
00559		0.316300	0.535592	-0.209851	0.754359	3.757065	-70.188000	131.863373
00560		0.316347	0.535591	-0.209946	0.754314	3.745377	-70.192956	131.862776
00561		0.316414	0.535584	-0.210030	0.754267	3.739246	-70.196508	131.855790
00562		0.316492	0.535590	-0.210122	0.754205	3.735889	-70.202107	131.844412
00563		0.316541	0.535587	-0.210214	0.754161	3.724927	-70.206608	131.843155
00564		0.316576	0.535585	-0.210247	0.754138	3.724477	-70.208102	131.837664
00565		0.316567	0.535597	-0.210278	0.754125	3.718035	-70.211394	131.842415
00566		0.316567	0.535618	-0.210228	0.754124	3.732934	-70.211219	131.831953
00567		0.316572	0.535649	-0.210145	0.754123	3.758303	-70.210417	131.813483
00568		0.316595	0.535664	-0.210096	0.754116	3.777133	-70.209429	131.796898
00569		0.316638	0.535681	-0.210055	0.754097	3.798415	-70.209100	131.775343
00570		0.316674	0.535712	-0.210021	0.754070	3.819287	-70.210783	131.754445
00571		0.316716	0.535755	-0.209963	0.754038	3.848948	-70.212865	131.726358
00572		0.316751	0.535820	-0.209932	0.753986	3.875084	-70.219037	131.700370
00573		0.316759	0.535877	-0.209875	0.753958	3.899941	-70.222936	131.680096
00574		0.316779	0.535917	-0.209782	0.753947	3.932597	-70.222633	131.653891
00575		0.316800	0.535934	-0.209696	0.753949	3.959530	-70.219866	131.632488
00576		0.316817	0.535956	-0.209648	0.753940	3.977624	-70.219785	131.617179
00577		0.316851	0.535969	-0.209615	0.753926	3.994870	-70.219419	131.599872
00578		0.316881	0.535986	-0.209584	0.753910	4.011286	-70.219561	131.583480
00579		0.316910	0.535975	-0.209559	0.753912	4.020932	-70.216687	131.573356
00580		0.316921	0.535979	-0.209505	0.753920	4.036215	-70.214030	131.561696
00581		0.316936	0.535944	-0.209470	0.753948	4.040677	-70.207487	131.558525
00582		0.316914	0.535925	-0.209387	0.753994	4.051329	-70.200479	131.556735
00583		0.316881	0.535918	-0.209279	0.754043	4.067438	-70.193713	131.552667
00584		0.316832	0.535935	-0.209188	0.754076	4.080558	-70.190945	131.551710
00585		0.316787	0.535949	-0.209146	0.754097	4.083014	-70.190567	131.556988
00586		0.316743	0.535973	-0.209119	0.754106	4.084208	-70.192232	131.562215
00587		0.316718	0.535991	-0.209081	0.754114	4.091040	-70.192502	131.560967
00588		0.316638	0.536005	-0.209053	0.754146	4.082819	-70.193090	131.578793
00589		0.316574	0.535998	-0.209020	0.754187	4.075686	-70.190637	131.594406
00590		0.316471	0.536001	-0.208988	0.754236	4.061615	-70.189904	131.620412
00591		0.316381	0.535976	-0.208955	0.754301	4.045714	-70.185275	131.646973
00592		0.316280	0.535967	-0.208909	0.754363	4.032971	-70.182078	131.672520
00593		0.316216	0.535956	-0.208866	0.754409	4.027446	-70.178554	131.687277
00594		0.316187	0.535948	-0.208872	0.754425	4.018628	-70.178092	131.698102
00595		0.316161	0.535950	-0.208854	0.754440	4.017455	-70.177466	131.703194
00596		0.316132	0.536001	-0.208811	0.754428	4.030244	-70.181649	131.697018
00597		0.316026	0.536094	-0.208668	0.754445	4.057028	-70.185849	131.692629
00598		0.315909	0.536198	-0.208462	0.754478	4.097516	-70.187913	131.681006
00599		0.315749	0.536274	-0.208231	0.754555	4.129897	-70.185194	131.683135
00600		0.315626	0.536320	-0.208030	0.754629	4.157459	-70.180298	131.683979
00601		0.315509	0.536335	-0.207809	0.754728	4.185394	-70.170327	131.685296
00602		0.315399	0.536355	-0.207636	0.754807	4.204890	-70.163674	131.690465
00603		0.315292	0.536387	-0.207465	0.754876	4.226778	-70.158609	131.692890
00604		0.315221	0.536430	-0.207313	0.754917	4.253814	-70.155782	131.685508
00605		0.315139	0.536488	-0.207162	0.754952	4.281247	-70.155021	131.678699
00606		0.315053	0.536543	-0.206977	0.754999	4.314751	-70.151962	131.669032
00607		0.314986	0.536596	-0.206791	0.755040	4.352084	-70.148545	131.653856
00608		0.314927	0.536651	-0.206593	0.755081	4.394219	-70.144460	131.634271
00609		0.314857	0.536688	-0.206376	0.755142	4.435031	-70.137293	131.618347
00610		0.314767	0.536724	-0.206185	0.755206	4.465640	-70.131582	131.612241
00611		0.314678	0.536785	-0.206026	0.755244	4.493725	-70.130713	131.606183
00612		0.314603	0.536844	-0.205912	0.755264	4.514264	-70.132174	131.602469
00613		0.314586	0.536870	-0.205826	0.755276	4.534847	-70.130680	131.590859
00614		0.314580	0.536917	-0.205819	0.755247	4.543924	-70.136222	131.583346
00615		0.314590	0.536955	-0.205851	0.755208	4.545596	-70.142693	131.578478
00616		0.314596	0.536983	-0.205906	0.755170	4.539827	-70.149330	131.579255
00617		0.314600	0.536996	-0.205947	0.755148	4.533912	-70.153307	131.581554
00618		0.314565	0.537023	-0.205912	0.755152	4.539185	-70.154989	131.582520
00619		0.314528	0.537022	-0.205850	0.755185	4.545423	-70.151519	131.584794
00620		0.314451	0.537069	-0.205766	0.755207	4.556601	-70.153176	131.588046
00621		0.314374	0.537130	-0.205668	0.755222	4.573579	-70.155792	131.586769
00622		0.314282	0.537197	-0.205572	0.755239	4.588075	-70.159285	131.589169
00623		0.314238	0.537249	-0.205535	0.755231	4.596791	-70.163996	131.588000
00624		0.314221	0.537272	-0.205545	0.755219	4.595442	-70.167562	131.590261
00625		0.314204	0.537306	-0.205530	0.755206	4.601401	-70.171063	131.587374
00626		0.314158	0.537377	-0.205474	0.755190	4.617379	-70.177127	131.580866
00627		0.314086	0.537433	-0.205409	0.755197	4.627221	-70.181002	131.583337
00628		0.313997	0.537497	-0.205294	0.755220	4.645950	-70.182982	131.582920
00629		0.313919	0.537558	-0.205196	0.755236	4.662890	-70.185595	131.581667
00630		0.313814	0.537627	-0.205100	0.755256	4.675184	-70.189527	131.587566
00631		0.313731	0.537692	-0.205020	0.755266	4.687766	-70.193742	131.589656
00632		0.313676	0.537756	-0.204961	0.755259	4.701323	-70.198755	131.586596
00633		0.313644	0.537805	-0.204924	0.755248	4.712026	-70.203035	131.582264
00634		0.313627	0.537851	-0.204907	0.755227	4.720701	-70.207907	131.576968
00635		0.313637	0.537870	-0.204924	0.755204	4.722349	-70.211271	131.573165
00636		0.313630	0.537910	-0.204947	0.755173	4.723229	-70.217645	131.571370
00637		0.313635	0.537940	-0.204967	0.755144	4.725296	-70.222517	131.567337
00638		0.313659	0.537984	-0.205013	0.755090	4.728189	-70.230592	131.558827
00639		0.313687	0.538024	-0.205074	0.755033	4.728002	-70.238881	131.551725
00640		0.313715	0.538059	-0.205117	0.754985	4.730592	-70.245461	131.543345
00641		0.313716	0.538103	-0.205099	0.754958	4.742975	-70.250042	131.532824
00642		0.313705	0.538176	-0.205047	0.754925	4.765811	-70.256284	131.515905
00643		0.313652	0.538234	-0.204960	0.754929	4.785178	-70.259089	131.509130
00644		0.313589	0.538313	-0.204820	0.754937	4.817991	-70.261406	131.494477
00645		0.313525	0.538377	-0.204657	0.754962	4.853112	-70.260600	131.479438
00646		0.313434	0.538429	-0.204506	0.755004	4.877445	-70.259106	131.476424
00647		0.313355	0.538483	-0.204372	0.755034	4.900990	-70.258925	131.471717
00648		0.313293	0.538524	-0.204255	0.755062	4.921862	-70.257824	131.466613
00649		0.313285	0.538562	-0.204183	0.755059	4.943236	-70.258450	131.452444
00650		0.313263	0.538606	-0.204138	0.755048	4.956985	-70.261680	131.444846
00651		0.313253	0.538637	-0.204081	0.755045	4.973591	-70.262402	131.434244
00652		0.313227	0.538678	-0.204035	0.755039	4.986214	-70.265075	131.428139
00653		0.313197	0.538687	-0.203959	0.755066	4.998258	-70.262040	131.425274
00654		0.313150	0.538710	-0.203890	0.755088	5.008523	-70.261331	131.425276
00655		0.313099	0.538742	-0.203820	0.755105	5.019419	-70.261747	131.425106
00656		0.313052	0.538768	-0.203776	0.755118	5.024180	-70.262775	131.428519
00657		0.313002	0.538773	-0.203723	0.755149	5.026662	-70.260812	131.434915
00658		0.312952	0.538788	-0.203708	0.755163	5.022188	-70.262114	131.445321
00659		0.312924	0.538770	-0.203701	0.755190	5.014412	-70.259583	131.456049
00660		0.312909	0.538760	-0.203743	0.755192	5.000105	-70.260842	131.468013
00661		0.312896	0.538755	-0.203767	0.755194	4.990909	-70.261629	131.476274
00662		0.312882	0.538701	-0.203811	0.755227	4.968070	-70.257424	131.496158
00663		0.312867	0.538665	-0.203850	0.755248	4.949260	-70.255290	131.512672
00664		0.312797	0.538635	-0.203829	0.755304	4.933768	-70.250774	131.535980
00665		0.312692	0.538606	-0.203759	0.755387	4.922039	-70.243862	131.562603
00666		0.312565	0.538600	-0.203687	0.755463	4.910289	-70.239770	131.591738
00667		0.312449	0.538584	-0.203612	0.755543	4.899753	-70.234260	131.618781
00668		0.312307	0.538566	-0.203534	0.755635	4.884276	-70.228600	131.653343
00669		0.312172	0.538538	-0.203487	0.755724	4.861022	-70.223171	131.692353
00670		0.312069	0.538499	-0.203493	0.755793	4.831003	-70.219211	131.730742
00671		0.311982	0.538456	-0.203472	0.755865	4.809514	-70.213216	131.761385
00672		0.311920	0.538401	-0.203486	0.755926	4.783073	-70.207434	131.791680
00673		0.311854	0.538344	-0.203505	0.755988	4.754589	-70.201831	131.823847
00674		0.311760	0.538303	-0.203509	0.756055	4.726440	-70.197500	131.859676
00675		0.311639	0.538263	-0.203494	0.756138	4.696988	-70.192331	131.900831
00676		0.311532	0.538232	-0.203468	0.756211	4.674826	-70.187587	131.934425
00677		0.311450	0.538175	-0.203485	0.756281	4.643172	-70.181847	131.971408
00678		0.311365	0.538148	-0.203514	0.756327	4.614123	-70.180614	132.005390
00679		0.311291	0.538117	-0.203549	0.756370	4.584953	-70.179064	132.037886
00680		0.311185	0.538112	-0.203557	0.756415	4.560104	-70.179564	132.071473
00681		0.311044	0.538110	-0.203552	0.756476	4.531079	-70.179848	132.113461
00682		0.310905	0.538100	-0.203532	0.756546	4.504701	-70.178267	132.153813
00683		0.310768	0.538093	-0.203458	0.756627	4.491414	-70.174091	132.185428
00684		0.310610	0.538088	-0.203384	0.756715	4.474415	-70.170255	132.222727
00685		0.310485	0.538072	-0.203376	0.756780	4.447012	-70.168585	132.261728
00686		0.310404	0.538029	-0.203367	0.756846	4.424327	-70.162980	132.292024
00687		0.310287	0.538002	-0.203297	0.756932	4.410726	-70.156419	132.321648
00688		0.310142	0.537987	-0.203188	0.757031	4.402416	-70.149328	132.351967
00689		0.309989	0.537990	-0.203057	0.757127	4.400459	-70.143151	132.378705
00690		0.309805	0.537999	-0.202900	0.757239	4.399092	-70.136574	132.409825
00691		0.309652	0.538011	-0.202763	0.757329	4.400265	-70.131383	132.433879
00692		0.309502	0.538028	-0.202645	0.757410	4.398548	-70.127827	132.459064
00693		0.309365	0.538021	-0.202572	0.757490	4.385247	-70.123629	132.490668
00694		0.309238	0.538042	-0.202509	0.757544	4.376839	-70.123555	132.515801
00695		0.309119	0.538018	-0.202526	0.757605	4.343997	-70.122035	132.557605
00696		0.308992	0.538001	-0.202546	0.757664	4.309902	-70.121825	132.601215
00697		0.308864	0.537969	-0.202559	0.757735	4.274664	-70.119197	132.646377
00698		0.308729	0.537930	-0.202586	0.757810	4.233222	-70.116512	132.697132
00699		0.308583	0.537895	-0.202622	0.757885	4.188472	-70.114874	132.751507
00700		0.308466	0.537838	-0.202688	0.757956	4.138761	-70.111979	132.805549
00701		0.308370	0.537777	-0.202772	0.758015	4.089194	-70.109422	132.856019
00702		0.308287	0.537715	-0.202858	0.758070	4.041228	-70.106769	132.903542
00703		0.308190	0.537652	-0.202966	0.758125	3.985373	-70.105318	132.958360
00704		0.308072	0.537620	-0.203031	0.758179	3.940389	-70.105455	133.008079
00705		0.307951	0.537580	-0.203067	0.758247	3.899736	-70.102905	133.056029
00706		0.307848	0.537515	-0.203125	0.758319	3.853762	-70.098378	133.105662
00707		0.307760	0.537437	-0.203212	0.758386	3.801980	-70.093777	133.157204
00708		0.307700	0.537355	-0.203294	0.758447	3.756659	-70.088177	133.200163
00709		0.307646	0.537276	-0.203375	0.758503	3.712965	-70.082772	133.241073
00710		0.307620	0.537202	-0.203445	0.758548	3.678540	-70.077377	133.271282
00711		0.307565	0.537093	-0.203517	0.758627	3.631876	-70.067828	133.315722
00712		0.307473	0.536999	-0.203541	0.758725	3.590986	-70.057601	133.362005
00713		0.307388	0.536911	-0.203523	0.758826	3.561931	-70.045815	133.399329
00714		0.307296	0.536823	-0.203490	0.758935	3.535124	-70.033208	133.436312
00715		0.307232	0.536735	-0.203466	0.759029	3.512126	-70.021051	133.466195
00716		0.307160	0.536655	-0.203462	0.759117	3.484244	-70.010847	133.500205
00717		0.307102	0.536591	-0.203480	0.759180	3.457211	-70.004033	133.530204
00718		0.307043	0.536551	-0.203489	0.759230	3.435986	-69.999628	133.555582
00719		0.307016	0.536510	-0.203509	0.759265	3.418794	-69.995624	133.573123
00720		0.307007	0.536451	-0.203534	0.759303	3.401046	-69.989626	133.589012
00721		0.306981	0.536416	-0.203539	0.759336	3.388560	-69.985562	133.603044
00722		0.306941	0.536375	-0.203515	0.759388	3.378666	-69.979150	133.618134
00723		0.306873	0.536326	-0.203453	0.759467	3.370478	-69.969819	133.637198
00724		0.306775	0.536288	-0.203374	0.759555	3.361456	-69.961072	133.661204
00725		0.306712	0.536243	-0.203314	0.759628	3.354448	-69.952294	133.678606
00726		0.306675	0.536206	-0.203327	0.759665	3.337698	-69.948550	133.697165
00727		0.306675	0.536151	-0.203379	0.759690	3.316427	-69.944400	133.713583
00728		0.306684	0.536111	-0.203436	0.759700	3.298334	-69.942338	133.725675
00729		0.306683	0.536107	-0.203470	0.759694	3.289668	-69.943720	133.731538
00730		0.306669	0.536104	-0.203496	0.759695	3.280483	-69.944818	133.739771
00731		0.306649	0.536108	-0.203497	0.759700	3.276816	-69.945380	133.745152
00732		0.306617	0.536117	-0.203489	0.759709	3.273434	-69.946261	133.752112
00733		0.306582	0.536150	-0.203472	0.759704	3.275785	-69.949684	133.754500
00734		0.306548	0.536176	-0.203452	0.759705	3.277558	-69.952054	133.757745
00735		0.306546	0.536176	-0.203496	0.759694	3.267276	-69.954497	133.764485
00736		0.306538	0.536160	-0.203536	0.759697	3.253922	-69.954651	133.775022
00737		0.306503	0.536169	-0.203571	0.759696	3.240302	-69.957783	133.788841
00738		0.306462	0.536198	-0.203629	0.759676	3.223444	-69.964894	133.804609
00739		0.306433	0.536206	-0.203707	0.759661	3.201155	-69.970301	133.823003
00740		0.306437	0.536218	-0.203790	0.759629	3.185044	-69.976374	133.831866
00741		0.306474	0.536174	-0.203908	0.759614	3.158294	-69.976929	133.844914
00742		0.306533	0.536185	-0.204029	0.759549	3.144870	-69.984732	133.842936
00743		0.306581	0.536211	-0.204102	0.759492	3.142402	-69.991839	133.835198
00744		0.306628	0.536243	-0.204188	0.759428	3.137991	-70.000319	133.828569
00745		0.306664	0.536263	-0.204241	0.759384	3.136714	-70.005703	133.822275
00746		0.306701	0.536262	-0.204288	0.759358	3.133379	-70.007889	133.818324
00747		0.306742	0.536216	-0.204347	0.759357	3.120833	-70.005160	133.821772
00748		0.306801	0.536190	-0.204390	0.759340	3.118814	-70.003874	133.814717
00749		0.306858	0.536187	-0.204438	0.759307	3.118990	-70.005841	133.805397
00750		0.306930	0.536172	-0.204485	0.759276	3.120611	-70.006259	133.793334
00751		0.307037	0.536154	-0.204576	0.759221	3.119108	-70.008366	133.777431
00752		0.307128	0.536151	-0.204656	0.759164	3.119147	-70.012015	133.762505
00753		0.307223	0.536149	-0.204700	0.759115	3.128514	-70.013800	133.740969
00754		0.307309	0.536149	-0.204712	0.759077	3.143413	-70.014064	133.717393
00755		0.307390	0.536162	-0.204734	0.759030	3.157341	-70.016637	133.694597
00756		0.307434	0.536192	-0.204742	0.758989	3.169659	-70.020663	133.677953
00757		0.307505	0.536197	-0.204761	0.758951	3.181249	-70.022120	133.658449
00758		0.307637	0.536184	-0.204863	0.758879	3.183074	-70.025488	133.636197
00759		0.307801	0.536150	-0.205039	0.758789	3.171185	-70.030023	133.618310
00760		0.307951	0.536136	-0.205204	0.758693	3.162141	-70.036725	133.599911
00761		0.308055	0.536128	-0.205298	0.758632	3.160888	-70.040341	133.583946
00762		0.308115	0.536089	-0.205311	0.758631	3.163812	-70.035893	133.574237
00763		0.308142	0.536051	-0.205278	0.758656	3.170435	-70.029040	133.567625
00764		0.308158	0.536035	-0.205201	0.758682	3.188418	-70.022726	133.554631
00765		0.308208	0.536035	-0.205115	0.758684	3.218477	-70.017866	133.527469
00766		0.308256	0.536037	-0.205045	0.758683	3.244613	-70.014016	133.503030
00767		0.308361	0.536026	-0.205002	0.758659	3.274110	-70.009847	133.467681
00768		0.308475	0.536033	-0.205026	0.758601	3.293747	-70.011557	133.435965
00769		0.308618	0.536032	-0.205050	0.758538	3.317771	-70.012113	133.397239
00770		0.308755	0.536021	-0.205002	0.758502	3.355150	-70.007524	133.351552
00771		0.308869	0.536009	-0.204893	0.758494	3.401499	-69.999502	133.304202
00772		0.308931	0.535964	-0.204709	0.758550	3.448260	-69.983386	133.267108
00773		0.309001	0.535926	-0.204563	0.758588	3.489340	-69.970177	133.231942
00774		0.309047	0.535900	-0.204367	0.758640	3.538573	-69.955832	133.194913
00775		0.309096	0.535881	-0.204165	0.758688	3.591076	-69.942141	133.154975
00776		0.309208	0.535817	-0.204065	0.758715	3.625666	-69.927867	133.118393
00777		0.309399	0.535723	-0.204073	0.758701	3.646856	-69.915445	133.078701
00778		0.309614	0.535610	-0.204130	0.758678	3.658740	-69.903250	133.041929
00779		0.309815	0.535501	-0.204219	0.758649	3.661219	-69.893383	133.013030
00780		0.309983	0.535438	-0.204293	0.758605	3.668024	-69.888631	132.984495
00781		0.310108	0.535379	-0.204348	0.758581	3.671207	-69.883549	132.964952
00782		0.310214	0.535299	-0.204362	0.758589	3.676004	-69.873774	132.948802
00783		0.310295	0.535233	-0.204394	0.758595	3.673955	-69.866666	132.940407
00784		0.310376	0.535165	-0.204453	0.758594	3.665389	-69.860905	132.936199
00785		0.310473	0.535107	-0.204556	0.758567	3.652104	-69.858910	132.931585
00786		0.310567	0.535036	-0.204681	0.758545	3.630923	-69.856294	132.933190
00787		0.310668	0.534954	-0.204828	0.758522	3.604487	-69.853558	132.937433
00788		0.310770	0.534869	-0.204972	0.758501	3.578505	-69.850300	132.941412
00789		0.310833	0.534805	-0.205137	0.758476	3.542948	-69.850904	132.956806
00790		0.310859	0.534735	-0.205248	0.758484	3.511117	-69.848089	132.976279
00791		0.310857	0.534678	-0.205325	0.758505	3.483501	-69.845112	132.997055
00792		0.310812	0.534631	-0.205360	0.758547	3.458286	-69.841303	133.022899
00793		0.310750	0.534592	-0.205335	0.758606	3.444453	-69.835229	133.043939
00794		0.310684	0.534589	-0.205314	0.758641	3.435348	-69.834034	133.060724
00795		0.310621	0.534581	-0.205332	0.758668	3.416743	-69.834285	133.083342
00796		0.310606	0.534549	-0.205399	0.758678	3.393252	-69.834023	133.102154
00797		0.310597	0.534533	-0.205421	0.758687	3.383779	-69.833226	133.110493
00798		0.310567	0.534529	-0.205495	0.758682	3.360064	-69.836908	133.130546
00799		0.310491	0.534524	-0.205513	0.758712	3.339460	-69.837548	133.156330
00800		0.310387	0.534543	-0.205510	0.758742	3.322128	-69.840265	133.183324
00801		0.310296	0.534571	-0.205520	0.758757	3.305997	-69.844806	133.206953
00802		0.310242	0.534589	-0.205573	0.758752	3.286141	-69.850252	133.227260
00803		0.310197	0.534588	-0.205629	0.758756	3.264025	-69.853393	133.248603
00804		0.310162	0.534585	-0.205651	0.758766	3.251498	-69.854340	133.262424
00805		0.310131	0.534587	-0.205743	0.758752	3.224716	-69.859830	133.284125
00806		0.310100	0.534592	-0.205822	0.758740	3.201313	-69.864941	133.303707
00807		0.310067	0.534607	-0.205892	0.758724	3.181070	-69.870807	133.321015
00808		0.310036	0.534619	-0.205955	0.758712	3.162497	-69.875911	133.337197
00809		0.309976	0.534647	-0.205994	0.758705	3.146379	-69.881881	133.355593
00810		0.309913	0.534679	-0.206017	0.758702	3.133420	-69.887497	133.372454
00811		0.309841	0.534702	-0.205985	0.758724	3.129791	-69.888920	133.385331
00812		0.309760	0.534700	-0.205988	0.758758	3.112152	-69.889184	133.409940
00813		0.309681	0.534725	-0.205948	0.758783	3.109260	-69.890493	133.423502
00814		0.309593	0.534752	-0.205926	0.758807	3.100552	-69.893051	133.442119
00815		0.309551	0.534744	-0.205939	0.758826	3.087796	-69.892915	133.457494
00816		0.309557	0.534721	-0.206019	0.758818	3.066918	-69.894369	133.470771
00817		0.309579	0.534681	-0.206121	0.758809	3.041644	-69.894746	133.485142
00818		0.309619	0.534657	-0.206245	0.758776	3.017518	-69.898319	133.494954
00819		0.309661	0.534644	-0.206374	0.758733	2.994843	-69.903614	133.502883
00820		0.309751	0.534609	-0.206536	0.758676	2.970746	-69.907700	133.504896
00821		0.309807	0.534600	-0.206650	0.758629	2.954721	-69.912543	133.506206
00822		0.309869	0.534580	-0.206764	0.758587	2.938228	-69.916081	133.507355
00823		0.309905	0.534558	-0.206856	0.758563	2.921054	-69.918068	133.513394
00824		0.309915	0.534552	-0.206892	0.758553	2.913982	-69.919288	133.516456
00825		0.309935	0.534534	-0.206916	0.758551	2.909669	-69.918244	133.516819
00826		0.309979	0.534502	-0.206961	0.758544	2.902851	-69.916406	133.515598
00827		0.310065	0.534468	-0.207054	0.758507	2.893717	-69.916831	133.508924
00828		0.310199	0.534397	-0.207176	0.758469	2.881695	-69.913975	133.498011
00829		0.310373	0.534329	-0.207318	0.758407	2.873776	-69.912404	133.477856
00830		0.310536	0.534263	-0.207477	0.758343	2.860195	-69.912118	133.462846
00831		0.310645	0.534250	-0.207604	0.758273	2.851704	-69.917024	133.450731
00832		0.310706	0.534248	-0.207646	0.758238	2.854419	-69.918787	133.439058
00833		0.310781	0.534232	-0.207667	0.758212	2.862336	-69.917742	133.422505
00834		0.310871	0.534200	-0.207693	0.758191	2.869764	-69.914682	133.404573
00835		0.310965	0.534177	-0.207748	0.758153	2.872659	-69.914484	133.388514
00836		0.311091	0.534139	-0.207859	0.758098	2.867006	-69.915269	133.373154
00837		0.311233	0.534118	-0.207996	0.758017	2.861743	-69.919513	133.354037
00838		0.311351	0.534095	-0.208114	0.757952	2.855608	-69.922661	133.339399
00839		0.311442	0.534079	-0.208263	0.757885	2.837636	-69.928528	133.336463
00840		0.311511	0.534077	-0.208339	0.757838	2.834222	-69.932089	133.327333
00841		0.311540	0.534076	-0.208361	0.757820	2.835240	-69.933159	133.321874
00842		0.311604	0.534070	-0.208384	0.757792	2.842200	-69.933368	133.307153
00843		0.311630	0.534072	-0.208390	0.757778	2.846725	-69.933816	133.299865
00844		0.311673	0.534103	-0.208382	0.757741	2.862470	-69.937124	133.281322
00845		0.311714	0.534132	-0.208422	0.757692	2.866845	-69.943006	133.270091
00846		0.311771	0.534172	-0.208450	0.757633	2.879148	-69.949324	133.250716
00847		0.311830	0.534184	-0.208529	0.757578	2.875434	-69.955055	133.242570
00848		0.311872	0.534216	-0.208608	0.757517	2.871845	-69.963302	133.236075
00849		0.311910	0.534238	-0.208688	0.757464	2.865276	-69.970374	133.232649
00850		0.311900	0.534258	-0.208719	0.757446	2.859627	-69.974582	133.236756
00851		0.311871	0.534271	-0.208680	0.757459	2.864747	-69.974278	133.237640
00852		0.311775	0.534301	-0.208588	0.757502	2.870922	-69.973412	133.248019
00853		0.311638	0.534387	-0.208459	0.757534	2.886331	-69.977751	133.256585
00854		0.311503	0.534492	-0.208337	0.757548	2.904156	-69.984977	133.262002
00855		0.311381	0.534616	-0.208238	0.757538	2.922486	-69.995756	133.264023
00856		0.311302	0.534743	-0.208179	0.757498	2.941277	-70.008949	133.258397
00857		0.311262	0.534870	-0.208166	0.757428	2.957854	-70.024520	133.247667
00858		0.311245	0.534980	-0.208184	0.757352	2.969049	-70.039693	133.237478
00859		0.311277	0.535068	-0.208259	0.757256	2.973907	-70.054866	133.224228
00860		0.311299	0.535151	-0.208367	0.757159	2.968365	-70.071333	133.219398
00861		0.311330	0.535205	-0.208498	0.757072	2.954140	-70.085256	133.220202
00862		0.311317	0.535274	-0.208581	0.757006	2.944333	-70.098698	133.224723
00863		0.311297	0.535342	-0.208620	0.756955	2.943230	-70.109606	133.225030
00864		0.311260	0.535404	-0.208637	0.756922	2.942273	-70.118530	133.228299
00865		0.311233	0.535456	-0.208652	0.756892	2.942025	-70.126186	133.230158
00866		0.311233	0.535514	-0.208666	0.756847	2.948942	-70.134291	133.222557
00867		0.311245	0.535584	-0.208658	0.756795	2.965682	-70.142714	133.206064
00868		0.311243	0.535657	-0.208624	0.756753	2.985607	-70.150112	133.189867
00869		0.311279	0.535733	-0.208594	0.756693	3.013058	-70.158125	133.162469
00870		0.311317	0.535797	-0.208614	0.756627	3.027566	-70.167096	133.143501
00871		0.311353	0.535837	-0.208607	0.756585	3.043805	-70.171660	133.124946
00872		0.311413	0.535850	-0.208587	0.756557	3.063110	-70.171979	133.102130
00873		0.311495	0.535846	-0.208571	0.756530	3.083282	-70.170279	133.075943
00874		0.311587	0.535820	-0.208567	0.756512	3.099033	-70.166429	133.052083
00875		0.311693	0.535780	-0.208568	0.756496	3.113916	-70.160944	133.027420
00876		0.311780	0.535723	-0.208553	0.756505	3.125667	-70.152440	133.008582
00877		0.311867	0.535680	-0.208526	0.756508	3.142418	-70.145088	132.986099
00878		0.311939	0.535664	-0.208458	0.756507	3.170325	-70.139046	132.957401
00879		0.311980	0.535656	-0.208369	0.756520	3.197724	-70.132973	132.933756
00880		0.312015	0.535656	-0.208284	0.756530	3.224252	-70.128058	132.911353
00881		0.312071	0.535661	-0.208227	0.756518	3.250057	-70.125349	132.885469
00882		0.312157	0.535666	-0.208238	0.756477	3.266254	-70.126189	132.860678
00883		0.312231	0.535669	-0.208275	0.756434	3.274101	-70.128257	132.843168
00884		0.312318	0.535656	-0.208308	0.756398	3.282219	-70.128078	132.824429
00885		0.312412	0.535629	-0.208405	0.756352	3.275331	-70.129657	132.814504
00886		0.312524	0.535589	-0.208516	0.756303	3.266417	-70.130221	132.803678
00887		0.312597	0.535543	-0.208604	0.756281	3.253605	-70.129015	132.802049
00888		0.312639	0.535483	-0.208676	0.756286	3.235589	-70.125195	132.809629
00889		0.312665	0.535446	-0.208729	0.756287	3.222566	-70.123349	132.815556
00890		0.312695	0.535388	-0.208811	0.756294	3.199721	-70.120339	132.828282
00891		0.312723	0.535339	-0.208886	0.756296	3.180083	-70.118127	132.838672
00892		0.312760	0.535302	-0.208976	0.756282	3.161007	-70.118284	132.846500
00893		0.312798	0.535291	-0.209038	0.756257	3.153044	-70.120174	132.845689
00894		0.312834	0.535288	-0.209149	0.756213	3.134681	-70.125821	132.851310
00895		0.312923	0.535284	-0.209278	0.756144	3.123330	-70.132124	132.843882
00896		0.313014	0.535277	-0.209399	0.756077	3.113493	-70.137541	132.835197
00897		0.313102	0.535234	-0.209524	0.756037	3.095972	-70.138715	132.833963
00898		0.313171	0.535188	-0.209638	0.756009	3.076635	-70.138912	132.837089
00899		0.313197	0.535180	-0.209699	0.755987	3.066626	-70.141192	132.839492
00900		0.313187	0.535168	-0.209743	0.755987	3.052624	-70.142105	132.850560
00901		0.313179	0.535143	-0.209745	0.756008	3.046096	-70.139138	132.857362
00902		0.313157	0.535143	-0.209751	0.756015	3.040184	-70.139549	132.864733
00903		0.313133	0.535142	-0.209700	0.756040	3.046472	-70.136634	132.864923
00904		0.313112	0.535155	-0.209661	0.756050	3.053321	-70.136200	132.863352
00905		0.313079	0.535179	-0.209625	0.756057	3.058696	-70.137371	132.864178
00906		0.313049	0.535215	-0.209575	0.756058	3.070091	-70.139350	132.860067
00907		0.312986	0.535259	-0.209500	0.756074	3.081563	-70.141035	132.860971
00908		0.312943	0.535284	-0.209446	0.756089	3.089364	-70.141324	132.861817
00909		0.312953	0.535266	-0.209435	0.756100	3.090711	-70.138454	132.860293
00910		0.312968	0.535238	-0.209438	0.756113	3.088237	-70.135003	132.860956
00911		0.312968	0.535235	-0.209448	0.756112	3.085577	-70.135223	132.862688
00912		0.312949	0.535234	-0.209456	0.756119	3.079412	-70.135517	132.869839
00913		0.312927	0.535220	-0.209427	0.756146	3.079055	-70.132236	132.874515
00914		0.312894	0.535205	-0.209404	0.756177	3.074810	-70.129208	132.883599
00915		0.312867	0.535192	-0.209383	0.756203	3.071690	-70.126439	132.890787
00916		0.312842	0.535209	-0.209362	0.756207	3.074374	-70.127577	132.892197
00917		0.312837	0.535196	-0.209334	0.756225	3.077204	-70.124465	132.892036
00918		0.312843	0.535198	-0.209362	0.756214	3.072342	-70.126165	132.894017
00919		0.312870	0.535214	-0.209423	0.756175	3.066971	-70.131518	132.892014
00920		0.312929	0.535211	-0.209525	0.756124	3.055626	-70.136541	132.889327
00921		0.312974	0.535181	-0.209616	0.756102	3.039104	-70.137638	132.893968
00922		0.312961	0.535175	-0.209672	0.756096	3.022675	-70.139902	132.906728
00923		0.312922	0.535178	-0.209654	0.756114	3.019049	-70.139584	132.915346
00924		0.312847	0.535194	-0.209561	0.756160	3.027092	-70.136682	132.922033
00925		0.312763	0.535228	-0.209423	0.756209	3.047079	-70.133710	132.921585
00926		0.312712	0.535273	-0.209324	0.756226	3.066767	-70.134107	132.915206
00927		0.312692	0.535318	-0.209237	0.756227	3.090083	-70.135100	132.901461
00928		0.312731	0.535338	-0.209248	0.756193	3.099387	-70.138071	132.887849
00929		0.312770	0.535337	-0.209254	0.756176	3.105863	-70.138122	132.877393
00930		0.312770	0.535323	-0.209185	0.756205	3.119227	-70.132529	132.869828
00931		0.312764	0.535309	-0.209057	0.756253	3.144687	-70.123711	132.855668
00932		0.312681	0.535314	-0.208876	0.756333	3.169315	-70.114597	132.853704
00933		0.312564	0.535366	-0.208622	0.756415	3.211635	-70.107558	132.843793
00934		0.312454	0.535398	-0.208363	0.756509	3.253130	-70.097735	132.834347
00935		0.312354	0.535455	-0.208121	0.756577	3.296967	-70.091930	132.820533
00936		0.312303	0.535490	-0.207952	0.756620	3.330871	-70.087316	132.805798
00937		0.312291	0.535495	-0.207846	0.756650	3.353379	-70.082139	132.793354
00938		0.312285	0.535486	-0.207744	0.756687	3.373534	-70.075256	132.782291
00939		0.312268	0.535467	-0.207647	0.756734	3.388624	-70.067532	132.776780
00940		0.312233	0.535441	-0.207579	0.756786	3.392447	-70.060626	132.781572
00941		0.312178	0.535425	-0.207495	0.756843	3.396848	-70.054158	132.789071
00942		0.312122	0.535443	-0.207371	0.756887	3.416652	-70.049780	132.784907
00943		0.312097	0.535431	-0.207325	0.756918	3.419649	-70.045870	132.787872
00944		0.312109	0.535417	-0.207342	0.756919	3.415775	-70.044934	132.789202
00945		0.312129	0.535394	-0.207357	0.756922	3.412824	-70.042836	132.788861
00946		0.312093	0.535405	-0.207331	0.756937	3.413007	-70.042894	132.794151
00947		0.312010	0.535425	-0.207239	0.756982	3.419924	-70.040701	132.802658
00948		0.311914	0.535441	-0.207063	0.757058	3.442684	-70.033414	132.803384
00949		0.311774	0.535461	-0.206882	0.757151	3.458150	-70.026581	132.815922
00950		0.311626	0.535495	-0.206702	0.757238	3.473794	-70.021539	132.829058
00951		0.311497	0.535516	-0.206531	0.757322	3.489667	-70.015389	132.839285
00952		0.311394	0.535530	-0.206416	0.757386	3.496496	-70.011207	132.851511
00953		0.311325	0.535535	-0.206347	0.757430	3.498807	-70.008274	132.861289
00954		0.311247	0.535554	-0.206328	0.757454	3.490160	-70.010025	132.878643
00955		0.311210	0.535584	-0.206336	0.757445	3.486109	-70.014502	132.885509
00956		0.311139	0.535617	-0.206366	0.757443	3.470253	-70.020586	132.905491
00957		0.311072	0.535662	-0.206400	0.757430	3.456354	-70.028504	132.922865
00958		0.310943	0.535719	-0.206349	0.757456	3.451255	-70.033511	132.944234
00959		0.310761	0.535810	-0.206252	0.757493	3.451271	-70.040562	132.969474
00960		0.310572	0.535911	-0.206118	0.757535	3.459965	-70.046921	132.989763
00961		0.310398	0.536010	-0.205974	0.757576	3.473492	-70.052229	133.004839
00962		0.310263	0.536106	-0.205884	0.757588	3.482889	-70.060032	133.015928
00963		0.310164	0.536221	-0.205861	0.757553	3.487614	-70.073932	133.022965
00964		0.310118	0.536315	-0.205927	0.757488	3.479265	-70.089713	133.030673
00965		0.310109	0.536414	-0.205984	0.757406	3.481893	-70.105460	133.024916
00966		0.310055	0.536513	-0.206052	0.757339	3.472406	-70.122119	133.034259
00967		0.309999	0.536620	-0.206073	0.757280	3.474689	-70.137198	133.036165
00968		0.309934	0.536705	-0.206053	0.757252	3.480833	-70.147136	133.038279
00969		0.309872	0.536798	-0.206027	0.757218	3.490056	-70.157799	133.037536
00970		0.309800	0.536899	-0.205952	0.757197	3.509751	-70.166815	133.031539
00971		0.309747	0.536995	-0.205869	0.757173	3.534154	-70.174658	133.019684
00972		0.309719	0.537064	-0.205815	0.757150	3.552964	-70.180602	133.008507
00973		0.309683	0.537160	-0.205735	0.757118	3.580605	-70.188610	132.991769
00974		0.309683	0.537221	-0.205663	0.757095	3.607827	-70.192235	132.971181
00975		0.309683	0.537279	-0.205525	0.757091	3.649690	-70.192063	132.941479
00976		0.309670	0.537308	-0.205397	0.757111	3.681020	-70.188713	132.922390
00977		0.309661	0.537335	-0.205257	0.757133	3.715784	-70.184357	132.900489
00978		0.309664	0.537348	-0.205149	0.757152	3.743370	-70.179974	132.881955
00979		0.309674	0.537367	-0.205042	0.757163	3.773213	-70.176502	132.860469
00980		0.309716	0.537393	-0.204965	0.757149	3.804234	-70.175286	132.832443
00981		0.309790	0.537382	-0.204946	0.757131	3.821800	-70.172461	132.809747
00982		0.309878	0.537387	-0.204949	0.757091	3.840734	-70.172808	132.782819
00983		0.309980	0.537397	-0.204956	0.757040	3.862037	-70.173963	132.751895
00984		0.310079	0.537384	-0.204965	0.757007	3.878575	-70.172289	132.725779
00985		0.310192	0.537356	-0.204979	0.756976	3.894078	-70.169005	132.698767
00986		0.310291	0.537320	-0.204974	0.756963	3.909481	-70.163583	132.674677
00987		0.310345	0.537299	-0.204943	0.756964	3.924085	-70.158948	132.657764
00988		0.310424	0.537275	-0.204903	0.756959	3.945547	-70.153293	132.632424
00989		0.310518	0.537249	-0.204899	0.756941	3.961209	-70.149192	132.608551
00990		0.310596	0.537218	-0.204874	0.756937	3.977848	-70.143581	132.586717
00991		0.310666	0.537203	-0.204855	0.756924	3.994090	-70.140174	132.565801
00992		0.310696	0.537211	-0.204802	0.756921	4.013611	-70.138056	132.548096
00993		0.310720	0.537205	-0.204723	0.756936	4.035610	-70.132811	132.530646
00994		0.310745	0.537201	-0.204649	0.756949	4.056754	-70.127991	132.513517
00995		0.310765	0.537191	-0.204568	0.756969	4.077516	-70.122186	132.497771
00996		0.310787	0.537188	-0.204428	0.757001	4.113182	-70.113808	132.471963
00997		0.310780	0.537187	-0.204255	0.757051	4.150511	-70.104066	132.449847
00998		0.310734	0.537196	-0.204081	0.757110	4.181839	-70.095755	132.437452
00999		0.310664	0.537199	-0.203911	0.757183	4.205953	-70.087011	132.433933
01000		0.310590	0.537211	-0.203711	0.757259	4.237870	-70.077735	132.425681
01001		0.310500	0.537224	-0.203518	0.757338	4.265235	-70.069164	132.422684
01002		0.310393	0.537252	-0.203328	0.757413	4.290825	-70.062701	132.422962
01003		0.310259	0.537301	-0.203124	0.757488	4.317550	-70.058239	132.425771
01004		0.310125	0.537352	-0.202971	0.757547	4.333298	-70.056916	132.435377
01005		0.309977	0.537407	-0.202851	0.757601	4.339381	-70.058017	132.453097
01006		0.309855	0.537456	-0.202748	0.757644	4.346106	-70.059208	132.466378
01007		0.309754	0.537494	-0.202719	0.757666	4.338475	-70.062900	132.485745
01008		0.309698	0.537521	-0.202775	0.757655	4.319015	-70.069779	132.505702
01009		0.309630	0.537527	-0.202806	0.757670	4.298956	-70.072664	132.529218
01010		0.309521	0.537516	-0.202797	0.757725	4.276275	-70.071435	132.562297
01011		0.309351	0.537532	-0.202730	0.757800	4.259051	-70.070696	132.600427
01012		0.309161	0.537550	-0.202645	0.757888	4.241912	-70.069338	132.641794
01013		0.308952	0.537568	-0.202541	0.757988	4.225040	-70.066970	132.686164
01014		0.308754	0.537585	-0.202438	0.758085	4.210289	-70.064439	132.727357
01015		0.308574	0.537576	-0.202338	0.758191	4.193927	-70.058782	132.768153
01016		0.308412	0.537573	-0.202255	0.758281	4.178469	-70.054754	132.804962
01017		0.308268	0.537566	-0.202225	0.758352	4.154130	-70.052958	132.844521
01018		0.308164	0.537559	-0.202232	0.758398	4.129638	-70.052996	132.877677
01019		0.308108	0.537524	-0.202310	0.758424	4.094287	-70.053238	132.911031
01020		0.308078	0.537464	-0.202402	0.758455	4.056789	-70.050847	132.942926
01021		0.308066	0.537403	-0.202509	0.758474	4.019109	-70.049130	132.972013
01022		0.308029	0.537342	-0.202583	0.758513	3.983847	-70.045533	133.003831
01023		0.307988	0.537244	-0.202611	0.758592	3.951867	-70.034856	133.036188
01024		0.307911	0.537165	-0.202633	0.758673	3.917060	-70.026518	133.075296
01025		0.307814	0.537095	-0.202581	0.758775	3.896463	-70.015277	133.108303
01026		0.307757	0.537023	-0.202531	0.758863	3.883196	-70.003653	133.130275
01027		0.307737	0.536954	-0.202511	0.758926	3.871371	-69.993863	133.144883
01028		0.307782	0.536885	-0.202518	0.758954	3.867140	-69.985299	133.143869
01029		0.307864	0.536806	-0.202597	0.758956	3.852477	-69.979157	133.143888
01030		0.307950	0.536747	-0.202667	0.758944	3.844128	-69.975134	133.138229
01031		0.308046	0.536695	-0.202730	0.758924	3.840682	-69.971576	133.127294
01032		0.308103	0.536625	-0.202722	0.758953	3.841840	-69.961937	133.121117
01033		0.308141	0.536551	-0.202658	0.759007	3.851425	-69.948829	133.112957
01034		0.308174	0.536480	-0.202591	0.759062	3.860916	-69.935964	133.105556
01035		0.308204	0.536413	-0.202528	0.759114	3.869646	-69.923802	133.098951
01036		0.308275	0.536353	-0.202476	0.759142	3.885250	-69.912918	133.080898
01037		0.308381	0.536281	-0.202510	0.759140	3.887085	-69.905187	133.066101
01038		0.308486	0.536219	-0.202578	0.759123	3.882685	-69.900506	133.054928
01039		0.308616	0.536170	-0.202645	0.759087	3.885544	-69.897293	133.034401
01040		0.308720	0.536134	-0.202696	0.759057	3.889182	-69.894989	133.016863
01041		0.308787	0.536107	-0.202706	0.759045	3.896059	-69.891818	133.002923
01042		0.308824	0.536097	-0.202667	0.759048	3.910591	-69.888269	132.988380
01043		0.308850	0.536094	-0.202614	0.759054	3.927358	-69.884790	132.973761
01044		0.308865	0.536084	-0.202571	0.759066	3.938413	-69.881108	132.964884
01045		0.308921	0.536053	-0.202612	0.759054	3.935335	-69.879061	132.959221
01046		0.309024	0.536009	-0.202689	0.759023	3.931565	-69.877254	132.946934
01047		0.309109	0.535971	-0.202797	0.758986	3.918155	-69.877971	132.943333
01048		0.309170	0.535951	-0.202888	0.758951	3.906548	-69.880185	132.941624
01049		0.309226	0.535938	-0.202943	0.758923	3.903527	-69.881281	132.934963
01050		0.309269	0.535930	-0.202983	0.758900	3.902104	-69.882245	132.929068
01051		0.309282	0.535925	-0.202994	0.758895	3.901359	-69.882131	132.927675
01052		0.309273	0.535901	-0.202947	0.758929	3.905647	-69.876514	132.928009
01053		0.309239	0.535895	-0.202904	0.758958	3.907484	-69.873552	132.932752
01054		0.309171	0.535930	-0.202833	0.758980	3.915423	-69.874455	132.937116
01055		0.309142	0.535942	-0.202796	0.758993	3.920011	-69.874119	132.938412
01056		0.309155	0.535961	-0.202772	0.758981	3.931507	-69.875023	132.927929
01057		0.309196	0.535963	-0.202804	0.758955	3.932936	-69.876850	132.920130
01058		0.309259	0.535967	-0.202895	0.758902	3.926100	-69.882114	132.913714
01059		0.309327	0.535970	-0.202964	0.758853	3.925146	-69.885970	132.902878
01060		0.309366	0.535980	-0.202980	0.758826	3.931128	-69.887918	132.892122
01061		0.309370	0.535995	-0.202947	0.758823	3.942062	-69.887919	132.883791
01062		0.309355	0.536030	-0.202850	0.758830	3.967037	-69.887047	132.868597
01063		0.309335	0.536055	-0.202751	0.758847	3.989451	-69.884832	132.856582
01064		0.309315	0.536092	-0.202651	0.758856	4.014536	-69.884084	132.842084
01065		0.309349	0.536105	-0.202620	0.758841	4.030619	-69.883863	132.825786
01066		0.309419	0.536121	-0.202613	0.758803	4.049523	-69.885127	132.801332
01067		0.309508	0.536138	-0.202630	0.758750	4.066919	-69.887792	132.774780
01068		0.309608	0.536132	-0.202683	0.758699	4.074443	-69.889423	132.753747
01069		0.309706	0.536139	-0.202740	0.758639	4.083226	-69.892963	132.731543
01070		0.309770	0.536150	-0.202742	0.758605	4.097734	-69.894048	132.711271
01071		0.309828	0.536172	-0.202716	0.758573	4.119363	-69.895097	132.686847
01072		0.309865	0.536208	-0.202637	0.758553	4.151074	-69.895096	132.658913
01073		0.309899	0.536226	-0.202542	0.758552	4.182551	-69.891846	132.632659
01074		0.309956	0.536243	-0.202481	0.758533	4.210924	-69.890281	132.604507
01075		0.310041	0.536233	-0.202473	0.758507	4.228454	-69.888143	132.579912
01076		0.310170	0.536243	-0.202483	0.758445	4.254519	-69.889290	132.541711
01077		0.310291	0.536254	-0.202559	0.758367	4.264321	-69.894193	132.514717
01078		0.310416	0.536257	-0.202618	0.758299	4.277370	-69.897102	132.485711
01079		0.310532	0.536266	-0.202652	0.758235	4.295348	-69.899605	132.454553
01080		0.310619	0.536272	-0.202640	0.758198	4.317084	-69.899186	132.426183
01081		0.310663	0.536300	-0.202573	0.758178	4.346067	-69.898748	132.399117
01082		0.310697	0.536333	-0.202497	0.758162	4.375882	-69.898402	132.373043
01083		0.310732	0.536385	-0.202396	0.758138	4.415062	-69.899117	132.339813
01084		0.310787	0.536424	-0.202373	0.758094	4.438407	-69.902407	132.313868
01085		0.310890	0.536441	-0.202416	0.758028	4.452950	-69.906367	132.286607
01086		0.311002	0.536449	-0.202439	0.757970	4.472389	-69.907994	132.255305
01087		0.311093	0.536453	-0.202428	0.757933	4.494129	-69.907348	132.226496
01088		0.311158	0.536462	-0.202381	0.757913	4.519681	-69.905463	132.199211
01089		0.311195	0.536473	-0.202293	0.757913	4.549112	-69.901709	132.174028
01090		0.311204	0.536517	-0.202186	0.757906	4.582766	-69.901309	132.149054
01091		0.311222	0.536545	-0.202133	0.757893	4.603200	-69.901727	132.131686
01092		0.311267	0.536585	-0.202112	0.757852	4.624564	-69.905329	132.108455
01093		0.311359	0.536596	-0.202136	0.757800	4.640039	-69.907496	132.082840
01094		0.311435	0.536620	-0.202178	0.757740	4.650698	-69.912416	132.062066
01095		0.311528	0.536632	-0.202252	0.757674	4.655400	-69.917526	132.042970
01096		0.311589	0.536645	-0.202298	0.757628	4.659931	-69.921303	132.029255
01097		0.311604	0.536651	-0.202280	0.757622	4.668169	-69.920958	132.021219
01098		0.311598	0.536641	-0.202229	0.757645	4.676586	-69.916876	132.017543
01099		0.311591	0.536649	-0.202177	0.757656	4.688313	-69.915044	132.010968
01100		0.311595	0.536667	-0.202193	0.757638	4.688665	-69.918141	132.009034
01101		0.311660	0.536672	-0.202246	0.757594	4.691114	-69.921324	131.996418
01102		0.311726	0.536685	-0.202334	0.757534	4.687592	-69.927537	131.986801
01103		0.311788	0.536703	-0.202415	0.757473	4.685712	-69.933976	131.976401
01104		0.311839	0.536726	-0.202485	0.757417	4.684644	-69.940520	131.967206
01105		0.311864	0.536776	-0.202514	0.757364	4.692400	-69.948230	131.955216
01106		0.311872	0.536815	-0.202486	0.757341	4.707356	-69.951552	131.942250
01107		0.311896	0.536823	-0.202412	0.757345	4.730214	-69.948268	131.923609
01108		0.311878	0.536843	-0.202310	0.757365	4.753027	-69.945198	131.911169
01109		0.311882	0.536871	-0.202232	0.757365	4.776249	-69.944230	131.894535
01110		0.311935	0.536868	-0.202181	0.757359	4.797887	-69.940590	131.872446
01111		0.311987	0.536870	-0.202174	0.757338	4.810557	-69.940125	131.855731
01112		0.312053	0.536871	-0.202143	0.757318	4.831303	-69.938223	131.831689
01113		0.312114	0.536862	-0.202126	0.757304	4.846143	-69.935716	131.812792
01114		0.312170	0.536852	-0.202082	0.757299	4.865671	-69.931632	131.791952
01115		0.312227	0.536858	-0.202003	0.757293	4.896218	-69.927542	131.763025
01116		0.312282	0.536840	-0.201935	0.757301	4.919376	-69.921060	131.740616
01117		0.312319	0.536841	-0.201852	0.757307	4.945494	-69.916260	131.718226
01118		0.312425	0.536813	-0.201836	0.757288	4.965776	-69.911103	131.689526
01119		0.312569	0.536776	-0.201885	0.757241	4.977796	-69.908313	131.660223
01120		0.312721	0.536741	-0.201968	0.757181	4.984462	-69.907582	131.632742
01121		0.312876	0.536700	-0.202042	0.757127	4.992452	-69.905596	131.604394
01122		0.313014	0.536666	-0.202084	0.757083	5.005255	-69.902771	131.575480
01123		0.313114	0.536626	-0.202095	0.757066	5.016289	-69.897778	131.554212
01124		0.313154	0.536600	-0.202055	0.757079	5.028465	-69.891935	131.541664
01125		0.313172	0.536545	-0.201987	0.757129	5.037146	-69.881045	131.536620
01126		0.313209	0.536489	-0.201888	0.757180	5.056667	-69.868173	131.521655
01127		0.313293	0.536420	-0.201888	0.757194	5.061080	-69.858922	131.509080
01128		0.313407	0.536350	-0.201956	0.757178	5.056645	-69.853248	131.497035
01129		0.313578	0.536277	-0.202088	0.757124	5.049116	-69.850404	131.477547
01130		0.313752	0.536221	-0.202255	0.757046	5.038029	-69.851773	131.458527
01131		0.313905	0.536166	-0.202398	0.756984	5.027604	-69.851926	131.442656
01132		0.314032	0.536122	-0.202476	0.756942	5.028500	-69.849938	131.423513
01133		0.314097	0.536068	-0.202512	0.756943	5.024063	-69.844893	131.418618
01134		0.314107	0.536064	-0.202472	0.756952	5.034120	-69.842000	131.410963
01135		0.314085	0.536033	-0.202391	0.757005	5.041902	-69.833682	131.411789
01136		0.314060	0.536018	-0.202327	0.757043	5.048111	-69.828314	131.413014
01137		0.314100	0.535975	-0.202372	0.757046	5.038393	-69.825166	131.415060
01138		0.314201	0.535927	-0.202514	0.757000	5.019207	-69.826492	131.412810
01139		0.314318	0.535876	-0.202696	0.756938	4.993723	-69.829753	131.411992
01140		0.314456	0.535821	-0.202888	0.756868	4.969634	-69.832868	131.407003
01141		0.314573	0.535780	-0.203016	0.756815	4.957858	-69.834112	131.397199
01142		0.314611	0.535770	-0.203093	0.756785	4.946928	-69.837030	131.398157
01143		0.314602	0.535777	-0.203064	0.756791	4.952528	-69.836356	131.395801
01144		0.314533	0.535801	-0.202935	0.756838	4.971103	-69.832438	131.394587
01145		0.314441	0.535830	-0.202781	0.756897	4.991546	-69.827941	131.395567
01146		0.314376	0.535861	-0.202664	0.756934	5.009806	-69.825632	131.393342
01147		0.314354	0.535860	-0.202641	0.756949	5.010351	-69.824398	131.396733
01148		0.314406	0.535826	-0.202681	0.756941	5.005971	-69.821968	131.392718
01149		0.314482	0.535803	-0.202809	0.756892	4.988914	-69.825927	131.391998
01150		0.314553	0.535783	-0.202936	0.756842	4.971913	-69.830078	131.391739
01151		0.314616	0.535748	-0.203060	0.756807	4.951201	-69.832385	131.396066
01152		0.314645	0.535737	-0.203113	0.756789	4.943202	-69.833851	131.396823
01153		0.314624	0.535742	-0.203075	0.756804	4.948256	-69.832485	131.396892
01154		0.314584	0.535745	-0.203010	0.756837	4.954967	-69.829330	131.399343
01155		0.314554	0.535755	-0.202923	0.756865	4.969910	-69.825930	131.394478
01156		0.314496	0.535767	-0.202785	0.756918	4.990628	-69.819914	131.390694
01157		0.314441	0.535782	-0.202648	0.756967	5.012288	-69.814328	131.385710
01158		0.314411	0.535840	-0.202523	0.756971	5.044306	-69.814854	131.367410
01159		0.314428	0.535862	-0.202486	0.756959	5.059939	-69.815302	131.353622
01160		0.314462	0.535879	-0.202467	0.756938	5.074246	-69.816092	131.337977
01161		0.314504	0.535886	-0.202486	0.756910	5.080041	-69.817763	131.326937
01162		0.314530	0.535888	-0.202507	0.756892	5.081121	-69.819101	131.321880
01163		0.314481	0.535895	-0.202392	0.756938	5.097539	-69.813774	131.319525
01164		0.314399	0.535915	-0.202204	0.757009	5.125996	-69.806149	131.314505
01165		0.314313	0.535943	-0.201969	0.757087	5.165319	-69.796871	131.302926
01166		0.314247	0.535985	-0.201771	0.757137	5.203105	-69.791350	131.288137
01167		0.314224	0.536025	-0.201661	0.757148	5.229845	-69.790281	131.273152
01168		0.314223	0.536065	-0.201576	0.757143	5.255742	-69.790361	131.254916
01169		0.314209	0.536095	-0.201505	0.757146	5.274024	-69.790240	131.244135
01170		0.314194	0.536126	-0.201434	0.757149	5.292302	-69.790222	131.233364
01171		0.314136	0.536148	-0.201340	0.757183	5.305124	-69.788027	131.233909
01172		0.314085	0.536168	-0.201205	0.757226	5.328073	-69.783119	131.227169
01173		0.314047	0.536185	-0.201119	0.757253	5.342127	-69.780660	131.223880
01174		0.314019	0.536209	-0.201053	0.757265	5.355506	-69.780122	131.218788
01175		0.314029	0.536215	-0.201043	0.757258	5.360879	-69.780276	131.213341
01176		0.314081	0.536209	-0.201106	0.757225	5.356312	-69.782658	131.207960
01177		0.314122	0.536212	-0.201189	0.757184	5.347116	-69.787467	131.206497
01178		0.314132	0.536225	-0.201238	0.757157	5.340792	-69.791849	131.207881
01179		0.314088	0.536253	-0.201229	0.757158	5.338976	-69.795118	131.214609
01180		0.313973	0.536295	-0.201110	0.757208	5.349383	-69.794384	131.224918
01181		0.313838	0.536349	-0.200927	0.757274	5.371964	-69.791741	131.230334
01182		0.313696	0.536404	-0.200776	0.757334	5.386270	-69.791014	131.241994
01183		0.313588	0.536461	-0.200678	0.757364	5.396161	-69.793439	131.250466
01184		0.313522	0.536504	-0.200679	0.757361	5.390428	-69.799286	131.262381
01185		0.313503	0.536532	-0.200730	0.757335	5.380583	-69.805850	131.269852
01186		0.313494	0.536547	-0.200810	0.757307	5.363711	-69.812390	131.280876
01187		0.313467	0.536568	-0.200858	0.757291	5.351409	-69.817854	131.291730
01188		0.313378	0.536578	-0.200830	0.757327	5.341223	-69.818232	131.312232
01189		0.313246	0.536598	-0.200720	0.757398	5.342029	-69.815303	131.332767
01190		0.313092	0.536606	-0.200571	0.757495	5.344823	-69.808947	131.356292
01191		0.312935	0.536597	-0.200442	0.757600	5.339668	-69.801625	131.386252
01192		0.312805	0.536601	-0.200343	0.757677	5.335474	-69.797442	131.410371
01193		0.312712	0.536621	-0.200319	0.757708	5.325536	-69.799176	131.430841
01194		0.312687	0.536619	-0.200418	0.757694	5.298042	-69.804724	131.452225
01195		0.312730	0.536596	-0.200591	0.757646	5.264418	-69.811437	131.467179
01196		0.312761	0.536557	-0.200776	0.757612	5.222935	-69.816731	131.489947
01197		0.312782	0.536524	-0.200960	0.757578	5.180404	-69.822862	131.514729
01198		0.312728	0.536494	-0.201067	0.757594	5.140191	-69.825511	131.550472
01199		0.312668	0.536483	-0.201102	0.757617	5.118091	-69.826543	131.574827
01200		0.312600	0.536482	-0.201103	0.757645	5.103915	-69.826992	131.594905
01201		0.312531	0.536491	-0.201094	0.757669	5.093333	-69.828033	131.612475
01202		0.312496	0.536494	-0.201084	0.757684	5.088881	-69.828092	131.620926
01203		0.312518	0.536498	-0.201149	0.757656	5.079782	-69.832078	131.622672
01204		0.312585	0.536526	-0.201241	0.757583	5.078408	-69.840369	131.610532
01205		0.312696	0.536547	-0.201352	0.757493	5.080261	-69.848551	131.589609
01206		0.312798	0.536589	-0.201483	0.757387	5.079943	-69.860572	131.570143
01207		0.312909	0.536620	-0.201589	0.757291	5.084898	-69.869717	131.546603
01208		0.313013	0.536627	-0.201640	0.757229	5.096429	-69.872774	131.521513
01209		0.313091	0.536648	-0.201634	0.757184	5.117565	-69.874522	131.494209
01210		0.313140	0.536665	-0.201580	0.757166	5.142549	-69.873284	131.469533
01211		0.313193	0.536691	-0.201499	0.757147	5.176218	-69.871599	131.438155
01212		0.313238	0.536726	-0.201409	0.757127	5.211859	-69.870508	131.406413
01213		0.313325	0.536744	-0.201338	0.757098	5.248715	-69.868154	131.368062
01214		0.313430	0.536776	-0.201303	0.757040	5.283971	-69.869525	131.326651
01215		0.313536	0.536789	-0.201241	0.757003	5.322071	-69.866895	131.284455
01216		0.313621	0.536811	-0.201158	0.756975	5.361693	-69.864212	131.244519
01217		0.313721	0.536832	-0.201072	0.756942	5.404901	-69.861283	131.199806
01218		0.313779	0.536859	-0.200959	0.756928	5.446882	-69.857875	131.162427
01219		0.313838	0.536865	-0.200858	0.756926	5.482637	-69.852438	131.130069
01220		0.313927	0.536888	-0.200802	0.756888	5.517372	-69.851435	131.092355
01221		0.314045	0.536884	-0.200809	0.756840	5.539222	-69.850554	131.059324
01222		0.314187	0.536882	-0.200886	0.756762	5.550980	-69.853611	131.028408
01223		0.314335	0.536841	-0.200993	0.756702	5.550348	-69.853456	131.006512
01224		0.314433	0.536816	-0.201106	0.756648	5.540917	-69.856123	130.997376
01225		0.314490	0.536800	-0.201202	0.756610	5.528675	-69.859199	130.996330
01226		0.314488	0.536793	-0.201227	0.756610	5.521317	-69.859748	131.001628
01227		0.314452	0.536765	-0.201219	0.756647	5.510392	-69.856047	131.016154
01228		0.314397	0.536748	-0.201202	0.756686	5.499863	-69.853373	131.032985
01229		0.314341	0.536741	-0.201239	0.756704	5.478977	-69.855000	131.055658
01230		0.314289	0.536722	-0.201322	0.756718	5.446268	-69.857681	131.085746
01231		0.314245	0.536693	-0.201420	0.756730	5.410598	-69.860007	131.116824
01232		0.314184	0.536652	-0.201569	0.756745	5.357318	-69.863780	131.162593
01233		0.314075	0.536616	-0.201698	0.756781	5.299878	-69.867404	131.218505
01234		0.313924	0.536579	-0.201779	0.756849	5.244194	-69.868410	131.280391
01235		0.313727	0.536549	-0.201811	0.756943	5.191066	-69.867802	131.348210
01236		0.313511	0.536535	-0.201814	0.757042	5.143150	-69.867722	131.414927
01237		0.313280	0.536537	-0.201835	0.757130	5.091605	-69.870736	131.485232
01238		0.313079	0.536520	-0.201905	0.757207	5.031777	-69.873909	131.556923
01239		0.312859	0.536513	-0.201965	0.757287	4.971743	-69.877831	131.631467
01240		0.312607	0.536526	-0.201971	0.757380	4.920994	-69.881508	131.704183
01241		0.312347	0.536532	-0.201950	0.757489	4.873360	-69.882759	131.776905
01242		0.312077	0.536533	-0.201909	0.757610	4.826851	-69.882283	131.850826
01243		0.311790	0.536557	-0.201841	0.757729	4.787513	-69.883347	131.921617
01244		0.311498	0.536563	-0.201792	0.757858	4.739475	-69.883084	131.999921
01245		0.311248	0.536563	-0.201745	0.757973	4.698384	-69.882097	132.067229
01246		0.311020	0.536510	-0.201716	0.758113	4.648493	-69.875105	132.139425
01247		0.310825	0.536449	-0.201755	0.758225	4.588611	-69.870794	132.212705
01248		0.310620	0.536404	-0.201814	0.758325	4.525362	-69.869680	132.288748
01249		0.310432	0.536364	-0.201885	0.758412	4.463649	-69.869700	132.360863
01250		0.310258	0.536342	-0.201960	0.758478	4.407320	-69.872128	132.426202
01251		0.310093	0.536316	-0.202045	0.758542	4.349732	-69.874486	132.490939
01252		0.309940	0.536294	-0.202115	0.758601	4.298860	-69.876464	132.549341
01253		0.309831	0.536266	-0.202189	0.758645	4.254830	-69.877713	132.596522
01254		0.309781	0.536194	-0.202306	0.758686	4.205634	-69.875361	132.639636
01255		0.309755	0.536115	-0.202448	0.758715	4.154401	-69.873383	132.680525
01256		0.309731	0.536027	-0.202576	0.758752	4.105327	-69.869508	132.720060
01257		0.309707	0.535938	-0.202626	0.758811	4.073599	-69.861196	132.748905
01258		0.309674	0.535835	-0.202638	0.758894	4.045953	-69.848992	132.777605
01259		0.309602	0.535762	-0.202598	0.758986	4.027458	-69.837936	132.805203
01260		0.309548	0.535690	-0.202487	0.759088	4.028764	-69.822975	132.817452
01261		0.309504	0.535603	-0.202356	0.759203	4.033691	-69.804859	132.826723
01262		0.309468	0.535544	-0.202217	0.759296	4.047073	-69.789895	132.827807
01263		0.309488	0.535464	-0.202128	0.759368	4.057257	-69.774807	132.822699
01264		0.309518	0.535384	-0.202023	0.759440	4.072906	-69.758723	132.812494
01265		0.309559	0.535320	-0.201932	0.759492	4.090419	-69.745368	132.798452
01266		0.309610	0.535258	-0.201875	0.759531	4.102897	-69.733992	132.785744
01267		0.309679	0.535178	-0.201855	0.759564	4.107379	-69.722516	132.776027
01268		0.309799	0.535071	-0.201884	0.759583	4.106616	-69.709865	132.762835
01269		0.309920	0.534946	-0.201939	0.759607	4.097372	-69.696472	132.755471
01270		0.310035	0.534855	-0.201969	0.759616	4.098268	-69.685983	132.741023
01271		0.310127	0.534759	-0.201980	0.759643	4.097687	-69.673965	132.731628
01272		0.310223	0.534667	-0.202016	0.759660	4.092869	-69.663785	132.724044
01273		0.310316	0.534578	-0.202062	0.759672	4.086159	-69.654611	132.717757
01274		0.310400	0.534511	-0.202112	0.759671	4.080392	-69.648506	132.711265
01275		0.310498	0.534451	-0.202159	0.759661	4.079484	-69.642945	132.699021
01276		0.310595	0.534406	-0.202232	0.759634	4.074998	-69.640765	132.688273
01277		0.310689	0.534383	-0.202329	0.759586	4.068586	-69.642707	132.677903
01278		0.310778	0.534363	-0.202407	0.759543	4.065646	-69.644077	132.666086
01279		0.310860	0.534352	-0.202498	0.759492	4.060308	-69.647377	132.656321
01280		0.310973	0.534301	-0.202604	0.759454	4.050810	-69.646143	132.646373
01281		0.311086	0.534247	-0.202735	0.759410	4.035151	-69.646006	132.640466
01282		0.311191	0.534207	-0.202837	0.759368	4.026944	-69.646077	132.630242
01283		0.311280	0.534164	-0.202952	0.759331	4.011833	-69.646585	132.627335
01284		0.311353	0.534144	-0.203015	0.759299	4.009108	-69.647065	132.618105
01285		0.311395	0.534108	-0.203021	0.759305	4.009929	-69.642642	132.612631
01286		0.311414	0.534107	-0.203035	0.759295	4.010481	-69.643177	132.609289
01287		0.311417	0.534135	-0.203007	0.759281	4.022461	-69.645195	132.599656
01288		0.311406	0.534174	-0.202957	0.759272	4.038016	-69.647344	132.589682
01289		0.311372	0.534214	-0.202863	0.759282	4.059160	-69.647421	132.579819
01290		0.311346	0.534259	-0.202785	0.759282	4.078691	-69.648855	132.569632
01291		0.311354	0.534287	-0.202749	0.759269	4.093268	-69.650346	132.557628
01292		0.311384	0.534298	-0.202767	0.759244	4.097448	-69.652598	132.549377
01293		0.311447	0.534283	-0.202830	0.759211	4.093641	-69.653954	132.542040
01294		0.311480	0.534266	-0.202904	0.759190	4.080868	-69.655748	132.545474
01295		0.311481	0.534274	-0.202910	0.759183	4.080920	-69.657002	132.544894
01296		0.311459	0.534268	-0.202907	0.759197	4.076393	-69.656182	132.551625
01297		0.311397	0.534272	-0.202857	0.759233	4.075657	-69.654287	132.562138
01298		0.311299	0.534280	-0.202750	0.759296	4.080658	-69.649835	132.574928
01299		0.311210	0.534272	-0.202670	0.759359	4.079089	-69.644861	132.591151
01300		0.311117	0.534285	-0.202596	0.759408	4.078973	-69.642940	132.605879
01301		0.311017	0.534302	-0.202554	0.759448	4.070989	-69.643259	132.626500
01302		0.310953	0.534329	-0.202551	0.759456	4.063508	-69.646872	132.640184
01303		0.310918	0.534358	-0.202648	0.759424	4.039699	-69.656151	132.659125
01304		0.310884	0.534362	-0.202762	0.759405	4.008138	-69.663139	132.684061
01305		0.310852	0.534379	-0.202881	0.759374	3.978000	-69.672103	132.707190
01306		0.310795	0.534383	-0.202996	0.759364	3.941739	-69.679217	132.738812
01307		0.310704	0.534402	-0.203060	0.759371	3.911945	-69.685576	132.771437
01308		0.310618	0.534415	-0.203118	0.759381	3.884051	-69.690880	132.802237
01309		0.310496	0.534432	-0.203154	0.759410	3.853825	-69.695645	132.840442
01310		0.310392	0.534484	-0.203201	0.759403	3.831437	-69.705431	132.868521
01311		0.310275	0.534535	-0.203223	0.759409	3.811418	-69.713701	132.897562
01312		0.310159	0.534616	-0.203258	0.759390	3.794168	-69.726459	132.922871
01313		0.310080	0.534701	-0.203334	0.759343	3.775581	-69.741687	132.942866
01314		0.310042	0.534772	-0.203467	0.759272	3.750326	-69.758366	132.960848
01315		0.310028	0.534823	-0.203622	0.759200	3.721548	-69.773389	132.978282
01316		0.310019	0.534848	-0.203734	0.759157	3.698637	-69.782745	132.992681
01317		0.309957	0.534922	-0.203744	0.759127	3.696607	-69.793046	133.000043
01318		0.309858	0.535010	-0.203674	0.759124	3.707379	-69.800783	133.004713
01319		0.309742	0.535107	-0.203571	0.759130	3.723601	-69.808072	133.008396
01320		0.309617	0.535231	-0.203424	0.759134	3.752575	-69.816147	133.004125
01321		0.309508	0.535364	-0.203283	0.759122	3.784976	-69.825768	132.994533
01322		0.309445	0.535486	-0.203190	0.759086	3.814146	-69.836484	132.979898
01323		0.309442	0.535576	-0.203146	0.759036	3.839114	-69.845469	132.959804
01324		0.309448	0.535702	-0.203156	0.758942	3.859963	-69.861949	132.938599
01325		0.309488	0.535812	-0.203203	0.758836	3.876902	-69.878254	132.915145
01326		0.309552	0.535924	-0.203289	0.758707	3.890150	-69.896981	132.889918
01327		0.309602	0.536018	-0.203316	0.758613	3.910802	-69.910169	132.863389
01328		0.309645	0.536098	-0.203311	0.758540	3.935043	-69.919742	132.836431
01329		0.309686	0.536162	-0.203296	0.758482	3.957893	-69.926871	132.811805
01330		0.309727	0.536219	-0.203263	0.758434	3.983939	-69.931938	132.785408
01331		0.309760	0.536304	-0.203180	0.758383	4.024208	-69.937909	132.749960
01332		0.309754	0.536392	-0.203036	0.758362	4.070966	-69.941101	132.716773
01333		0.309797	0.536471	-0.202929	0.758317	4.117951	-69.944917	132.675744
01334		0.309847	0.536535	-0.202899	0.758259	4.146417	-69.951069	132.645870
01335		0.309927	0.536607	-0.202866	0.758185	4.182839	-69.957915	132.605795
01336		0.310043	0.536646	-0.202925	0.758093	4.200893	-69.965557	132.572753
01337		0.310177	0.536631	-0.203003	0.758028	4.208078	-69.967292	132.546907
01338		0.310336	0.536575	-0.203143	0.757966	4.199436	-69.967037	132.529115
01339		0.310456	0.536495	-0.203284	0.757936	4.178464	-69.964078	132.526786
01340		0.310558	0.536397	-0.203393	0.757934	4.157596	-69.957216	132.528499
01341		0.310657	0.536272	-0.203527	0.757945	4.125887	-69.948389	132.538864
01342		0.310792	0.536114	-0.203786	0.757932	4.067631	-69.942127	132.561903
01343		0.310934	0.535932	-0.204079	0.757924	3.998758	-69.934576	132.591708
01344		0.311101	0.535706	-0.204459	0.757913	3.908129	-69.926197	132.633274
01345		0.311281	0.535469	-0.204855	0.757899	3.814548	-69.917330	132.675183
01346		0.311498	0.535202	-0.205313	0.757875	3.709475	-69.907893	132.719790
01347		0.311765	0.534906	-0.205873	0.757822	3.586925	-69.900249	132.768414
01348		0.312018	0.534627	-0.206471	0.757752	3.455889	-69.896846	132.823816
01349		0.312241	0.534338	-0.207062	0.757703	3.318667	-69.891916	132.888495
01350		0.312440	0.534049	-0.207604	0.757676	3.187581	-69.884281	132.953302
01351		0.312602	0.533762	-0.208125	0.757669	3.054045	-69.875933	133.025729
01352		0.312751	0.533462	-0.208606	0.757687	2.924741	-69.863813	133.098201
01353		0.312899	0.533140	-0.209084	0.757720	2.792435	-69.848713	133.173897
01354		0.313076	0.532812	-0.209581	0.757741	2.661103	-69.833700	133.244336
01355		0.313267	0.532478	-0.210093	0.757754	2.528135	-69.818746	133.313774
01356		0.313536	0.532124	-0.210690	0.757726	2.388943	-69.805550	133.375076
01357		0.313876	0.531741	-0.211370	0.757665	2.241062	-69.793010	133.431420
01358		0.314304	0.531336	-0.212119	0.757562	2.091874	-69.781193	133.475077
01359		0.314743	0.530926	-0.212918	0.757443	1.933200	-69.771655	133.522925
01360		0.315255	0.530465	-0.213763	0.757315	1.770819	-69.757814	133.563688
01361		0.315780	0.530001	-0.214625	0.757178	1.607089	-69.744568	133.602988
01362		0.316313	0.529552	-0.215411	0.757046	1.464806	-69.729098	133.626701
01363		0.316873	0.529069	-0.216192	0.756927	1.323887	-69.709062	133.646655
01364		0.317516	0.528580	-0.217015	0.756763	1.189791	-69.690626	133.648626
01365		0.318254	0.528048	-0.217905	0.756570	1.053319	-69.670080	133.638407
01366		0.319077	0.527508	-0.218903	0.756311	0.908727	-69.654686	133.619446
01367		0.319997	0.526939	-0.219947	0.756016	0.769156	-69.638161	133.582274
01368		0.321053	0.526325	-0.221121	0.755654	0.621017	-69.623055	133.530049
01369		0.322204	0.525687	-0.222387	0.755236	0.468189	-69.610121	133.465771
01370		0.323439	0.525022	-0.223725	0.754775	0.312594	-69.598125	133.390152
01371		0.324752	0.524328	-0.225078	0.754292	0.164885	-69.583468	133.297977
01372		0.326103	0.523604	-0.226487	0.753790	0.008151	-69.568618	133.206035
01373		0.327489	0.522841	-0.227866	0.753303	-0.140016	-69.547540	133.104400
01374		0.328880	0.522051	-0.229291	0.752812	-0.301703	-69.526074	133.011376
01375		0.330295	0.521299	-0.230645	0.752300	-0.435801	-69.505935	132.894903
01376		0.331730	0.520558	-0.232016	0.751760	-0.567530	-69.488645	132.772589
01377		0.333230	0.519832	-0.233415	0.751166	-0.689551	-69.475364	132.632324
01378		0.334841	0.519093	-0.234956	0.750480	-0.822178	-69.469067	132.480173
01379		0.336579	0.518316	-0.236681	0.749697	-0.975129	-69.469155	132.320370
01380		0.338421	0.517521	-0.238592	0.748810	-1.150725	-69.478300	132.157312
01381		0.340302	0.516718	-0.240617	0.747863	-1.343997	-69.493902	131.998080
01382		0.342186	0.515897	-0.242749	0.746882	-1.562700	-69.514089	131.854402
01383		0.344025	0.515096	-0.244959	0.745867	-1.803757	-69.542268	131.730117
01384		0.345803	0.514309	-0.247141	0.744868	-2.048356	-69.571521	131.617073
01385		0.347463	0.513563	-0.249308	0.743887	-2.306703	-69.605703	131.529792
01386		0.348985	0.512848	-0.251398	0.742964	-2.570995	-69.639649	131.467655
01387		0.350348	0.512198	-0.253330	0.742114	-2.822432	-69.673143	131.421054
01388		0.351605	0.511647	-0.255117	0.741287	-3.047629	-69.710982	131.371268
01389		0.352901	0.511204	-0.256895	0.740362	-3.245354	-69.762978	131.292244
01390		0.354331	0.510815	-0.258647	0.739337	-3.400519	-69.821432	131.160979
01391		0.355961	0.510409	-0.260508	0.738180	-3.539578	-69.885824	130.985519
01392		0.357827	0.509922	-0.262570	0.736883	-3.686399	-69.953542	130.777476
01393		0.359846	0.509377	-0.264829	0.735467	-3.852735	-70.027229	130.556847
01394		0.361952	0.508774	-0.267250	0.733973	-4.045104	-70.104793	130.338945
01395		0.364113	0.508136	-0.269756	0.732429	-4.249096	-70.184578	130.119379
01396		0.366369	0.507397	-0.272421	0.730827	-4.482857	-70.263009	129.905155
01397		0.368746	0.506579	-0.275213	0.729152	-4.730966	-70.341290	129.681502
01398		0.371167	0.505700	-0.278029	0.727463	-4.982784	-70.415174	129.453869
01399		0.373594	0.504709	-0.280826	0.725833	-5.245015	-70.475462	129.235657
01400		0.375966	0.503608	-0.283651	0.724272	-5.542713	-70.524698	129.053387
01401		0.378290	0.502431	-0.286486	0.722763	-5.864166	-70.566091	128.896661
01402		0.380583	0.501207	-0.289309	0.721282	-6.195727	-70.602313	128.752606
01403		0.382875	0.499909	-0.292150	0.719824	-6.542678	-70.631706	128.620619
01404		0.385178	0.498499	-0.295010	0.718405	-6.907735	-70.649812	128.501770
01405		0.387410	0.497015	-0.297933	0.717026	-7.314150	-70.663281	128.423512
01406		0.389621	0.495396	-0.300924	0.715697	-7.760409	-70.665234	128.378264
01407		0.391690	0.493769	-0.303877	0.714444	-8.229938	-70.663700	128.371980
01408		0.393620	0.492104	-0.306809	0.713278	-8.730266	-70.655849	128.409772
01409		0.395395	0.490473	-0.309782	0.712133	-9.267781	-70.654320	128.495334
01410		0.397022	0.488909	-0.312713	0.711022	-9.817668	-70.657937	128.610738
01411		0.398472	0.487377	-0.315473	0.710042	-10.361815	-70.653378	128.751895
01412		0.399785	0.485848	-0.318081	0.709188	-10.899517	-70.638121	128.912472
01413		0.400994	0.484306	-0.320539	0.708453	-11.425901	-70.610763	129.084076
01414		0.402094	0.482807	-0.322888	0.707786	-11.943281	-70.580702	129.266659
01415		0.403153	0.481289	-0.325210	0.707154	-12.464177	-70.546133	129.458258
01416		0.404164	0.479766	-0.327504	0.706553	-12.987753	-70.508482	129.658916
01417		0.405115	0.478211	-0.329744	0.706021	-13.514286	-70.462353	129.872091
01418		0.405970	0.476644	-0.331935	0.705562	-14.049429	-70.409916	130.106595
01419		0.406695	0.475113	-0.333994	0.705206	-14.575153	-70.351280	130.355879
01420		0.407280	0.473608	-0.335852	0.704998	-15.077112	-70.280644	130.612793
01421		0.407636	0.472179	-0.337471	0.704977	-15.559839	-70.200166	130.894542
01422		0.407766	0.470746	-0.338920	0.705165	-16.048202	-70.103297	131.218278
01423		0.407618	0.469337	-0.340245	0.705552	-16.559106	-69.995091	131.602433
01424		0.407209	0.467910	-0.341519	0.706120	-17.110393	-69.874497	132.055646
01425		0.406584	0.466448	-0.342842	0.706806	-17.715880	-69.745635	132.578395
01426		0.405768	0.465034	-0.344257	0.707519	-18.371107	-69.622297	133.160939
01427		0.404798	0.463742	-0.345742	0.708198	-19.055207	-69.513326	133.782142
01428		0.403697	0.462551	-0.347272	0.708857	-19.760163	-69.414721	134.433750
01429		0.402508	0.461467	-0.348870	0.709454	-20.483515	-69.329448	135.107030
01430		0.401233	0.460514	-0.350516	0.709984	-21.218832	-69.259270	135.797834
01431		0.399925	0.459658	-0.352213	0.710436	-21.960890	-69.201316	136.494945
01432		0.398565	0.458939	-0.353868	0.710843	-22.688417	-69.155012	137.188160
01433		0.397129	0.458342	-0.355404	0.711266	-23.389653	-69.113480	137.874650
01434		0.395610	0.457778	-0.356766	0.711794	-24.058415	-69.061884	138.552731
01435		0.393991	0.457239	-0.357921	0.712458	-24.689593	-68.997073	139.221622
01436		0.392240	0.456743	-0.358857	0.713271	-25.284064	-68.919956	139.886740
01437		0.390346	0.456238	-0.359520	0.714299	-25.832454	-68.820743	140.543849
01438		0.388337	0.455695	-0.359982	0.715506	-26.347400	-68.700485	141.195712
01439		0.386193	0.455155	-0.360256	0.716871	-26.832876	-68.564858	141.847680
01440		0.383983	0.454536	-0.360450	0.718353	-27.305853	-68.410937	142.499264
01441		0.381749	0.453768	-0.360741	0.719880	-27.805115	-68.239723	143.167465
01442		0.379535	0.452852	-0.361230	0.721382	-28.345923	-68.057067	143.854368
01443		0.377409	0.451838	-0.361901	0.722795	-28.910396	-67.871603	144.538091
01444		0.375391	0.450824	-0.362711	0.724072	-29.481259	-67.694710	145.204886
01445		0.373547	0.449797	-0.363645	0.725195	-30.045192	-67.526678	145.836731
01446		0.371921	0.448708	-0.364810	0.726119	-30.623289	-67.367550	146.439839
01447		0.370541	0.447537	-0.366299	0.726798	-31.236001	-67.219520	147.023311
01448		0.369431	0.446222	-0.368098	0.727263	-31.877360	-67.074790	147.579127
01449		0.368542	0.444736	-0.370255	0.727529	-32.567457	-66.929745	148.126660
01450		0.367848	0.443069	-0.372792	0.727601	-33.315417	-66.782755	148.675324
01451		0.367243	0.441325	-0.375459	0.727596	-34.074757	-66.632727	149.213111
01452		0.366639	0.439577	-0.378058	0.727612	-34.809231	-66.477824	149.731317
01453		0.365957	0.437828	-0.380424	0.727777	-35.489295	-66.308247	150.223360
01454		0.365139	0.436139	-0.382462	0.728135	-36.100374	-66.126071	150.689911
01455		0.364138	0.434544	-0.384130	0.728711	-36.639196	-65.932553	151.136552
01456		0.362990	0.432994	-0.385470	0.729498	-37.110710	-65.724615	151.560587
01457		0.361780	0.431487	-0.386571	0.730409	-37.525742	-65.509612	151.956390
01458		0.360564	0.429928	-0.387583	0.731393	-37.912030	-65.283613	152.331078
01459		0.359384	0.428242	-0.388692	0.732373	-38.308221	-65.045749	152.700537
01460		0.358304	0.426400	-0.389956	0.733305	-38.718949	-64.797342	153.057508
01461		0.357350	0.424329	-0.391422	0.734190	-39.150336	-64.532025	153.399705
01462		0.356516	0.422021	-0.393067	0.735046	-39.596533	-64.247509	153.723814
01463		0.355746	0.419499	-0.394909	0.735875	-40.068784	-63.944976	154.044635
01464		0.354971	0.416812	-0.396843	0.736735	-40.550445	-63.623755	154.362594
01465		0.354172	0.414088	-0.398876	0.737558	-41.048734	-63.299679	154.688297
01466		0.353372	0.411527	-0.400846	0.738307	-41.528501	-62.994256	155.003804
01467		0.352617	0.409128	-0.402590	0.739052	-41.947623	-62.704509	155.278422
01468		0.351843	0.406813	-0.404143	0.739850	-42.321411	-62.418250	155.528233
01469		0.351036	0.404355	-0.405660	0.740750	-42.680197	-62.110945	155.766040
01470		0.350181	0.401607	-0.407417	0.741685	-43.083791	-61.771788	156.023226
01471		0.349382	0.398562	-0.409534	0.742538	-43.545971	-61.409495	156.292336
01472		0.348619	0.395580	-0.411816	0.743229	-44.035807	-61.062299	156.570056
01473		0.347907	0.392853	-0.413888	0.743858	-44.475126	-60.743659	156.817084
01474		0.347161	0.390467	-0.415541	0.744540	-44.830929	-60.453592	157.030343
01475		0.346375	0.388346	-0.416877	0.745268	-45.125692	-60.185118	157.221656
01476		0.345513	0.386290	-0.418168	0.746014	-45.416270	-59.919313	157.421037
01477		0.344569	0.384201	-0.419614	0.746717	-45.743396	-59.649533	157.648141
01478		0.343556	0.381985	-0.421270	0.747388	-46.113170	-59.366191	157.900462
01479		0.342542	0.379620	-0.423173	0.747983	-46.525833	-59.071273	158.167681
01480		0.341549	0.377272	-0.425181	0.748486	-46.954378	-58.782516	158.438446
01481		0.340577	0.375066	-0.427012	0.748995	-47.343548	-58.507201	158.687393
01482		0.339565	0.373086	-0.428489	0.749600	-47.665299	-58.247587	158.911613
01483		0.338455	0.371321	-0.429634	0.750322	-47.929994	-57.999631	159.124129
01484		0.337225	0.369699	-0.430583	0.751132	-48.165570	-57.756942	159.340530
01485		0.335900	0.368294	-0.431382	0.751958	-48.383210	-57.531373	159.567235
01486		0.334584	0.367083	-0.432056	0.752749	-48.579431	-57.326537	159.788053
01487		0.333388	0.366007	-0.432630	0.753473	-48.748815	-57.142324	159.984103
01488		0.332342	0.365077	-0.433109	0.754112	-48.891009	-56.981893	160.151988
01489		0.331407	0.364360	-0.433463	0.754666	-49.006666	-56.850346	160.300376
01490		0.330536	0.363889	-0.433681	0.755150	-49.098487	-56.748979	160.438346
01491		0.329728	0.363654	-0.433847	0.755520	-49.184103	-56.678399	160.575274
01492		0.328941	0.363533	-0.434081	0.755787	-49.286516	-56.624405	160.723259
01493		0.328229	0.363485	-0.434298	0.755995	-49.382504	-56.583020	160.861472
01494		0.327596	0.363434	-0.434461	0.756201	-49.461174	-56.544520	160.980392
01495		0.327021	0.363484	-0.434583	0.756356	-49.531211	-56.520371	161.091892
01496		0.326568	0.363589	-0.434754	0.756403	-49.604443	-56.511079	161.192080
01497		0.326122	0.363745	-0.435049	0.756351	-49.704929	-56.511336	161.308110
01498		0.325596	0.363993	-0.435347	0.756286	-49.816004	-56.518141	161.443811
01499		0.324968	0.364296	-0.435553	0.756293	-49.917994	-56.523221	161.590096
01500		0.324219	0.364712	-0.435616	0.756377	-50.004753	-56.531512	161.748681
01501		0.323315	0.365233	-0.435466	0.756599	-50.063825	-56.538365	161.916843
01502		0.322245	0.365836	-0.435221	0.756905	-50.119301	-56.543204	162.107507
01503		0.321075	0.366413	-0.435030	0.757232	-50.192391	-56.540364	162.318855
01504		0.319825	0.366990	-0.434994	0.757503	-50.303315	-56.536387	162.560150
01505		0.318525	0.367544	-0.435151	0.757692	-50.456791	-56.530891	162.828871
01506		0.317174	0.367981	-0.435465	0.757866	-50.640932	-56.511561	163.114660
01507		0.315753	0.368295	-0.435896	0.758059	-50.848056	-56.475507	163.415376
01508		0.314190	0.368562	-0.436324	0.758332	-51.061990	-56.425013	163.734602
01509		0.312378	0.368878	-0.436653	0.758738	-51.275165	-56.363120	164.086055
01510		0.310327	0.369283	-0.436876	0.759254	-51.487063	-56.295196	164.470090
01511		0.308021	0.369824	-0.437085	0.759809	-51.720662	-56.227732	164.902990
01512		0.305506	0.370402	-0.437332	0.760400	-51.977570	-56.152510	165.374704
01513		0.302860	0.370996	-0.437562	0.761037	-52.239718	-56.070400	165.865222
01514		0.300156	0.371595	-0.437729	0.761719	-52.492204	-55.983498	166.356996
01515		0.297546	0.372178	-0.437942	0.762336	-52.745712	-55.900595	166.836236
01516		0.295082	0.372737	-0.438159	0.762896	-52.987771	-55.822928	167.289723
01517		0.292743	0.373329	-0.438277	0.763440	-53.202196	-55.754398	167.714640
01518		0.290449	0.373932	-0.438209	0.764060	-53.375599	-55.686693	168.112595
01519		0.288074	0.374617	-0.437890	0.764806	-53.507175	-55.619679	168.502041
01520		0.285571	0.375368	-0.437305	0.765710	-53.596507	-55.548985	168.887783
01521		0.282957	0.376168	-0.436435	0.766784	-53.637515	-55.473392	169.263600
01522		0.280277	0.376850	-0.435432	0.768003	-53.647956	-55.378836	169.624525
01523		0.277626	0.377429	-0.434399	0.769265	-53.643959	-55.274055	169.968617
01524		0.275153	0.377992	-0.433271	0.770512	-53.608149	-55.177669	170.273704
01525		0.272989	0.378533	-0.432175	0.771631	-53.557977	-55.098162	170.533194
01526		0.271163	0.378981	-0.431467	0.772450	-53.559133	-55.033243	170.774127
01527		0.269578	0.379354	-0.431164	0.772991	-53.621750	-54.978788	171.014148
01528		0.268097	0.379681	-0.431071	0.773398	-53.716953	-54.927548	171.256008
01529		0.266619	0.380071	-0.430980	0.773768	-53.816371	-54.883896	171.502927
01530		0.265099	0.380545	-0.430658	0.774236	-53.877290	-54.845005	171.739295
01531		0.263523	0.381099	-0.429987	0.774874	-53.876829	-54.808565	171.954674
01532		0.261904	0.381671	-0.429036	0.775669	-53.823905	-54.768967	172.148912
01533		0.260297	0.382326	-0.427831	0.776552	-53.725424	-54.737803	172.322684
01534		0.258702	0.383122	-0.426301	0.777534	-53.570752	-54.721060	172.473749
01535		0.257104	0.383969	-0.424485	0.778638	-53.363354	-54.708173	172.600684
01536		0.255454	0.384831	-0.422469	0.779851	-53.120980	-54.692822	172.716460
01537		0.253744	0.385773	-0.420245	0.781145	-52.847086	-54.682265	172.827356
01538		0.252016	0.386735	-0.417854	0.782510	-52.543499	-54.672531	172.925987
01539		0.250275	0.387765	-0.415300	0.783918	-52.213751	-54.669452	173.016239
01540		0.248611	0.388910	-0.412662	0.785272	-51.871461	-54.684811	173.096948
01541		0.247003	0.390196	-0.410070	0.786498	-51.545120	-54.721501	173.186600
01542		0.245492	0.391590	-0.407423	0.787653	-51.209356	-54.776900	173.265159
01543		0.244158	0.393147	-0.404747	0.788671	-50.867987	-54.862329	173.327950
01544		0.243073	0.395015	-0.402092	0.789431	-50.535039	-54.999740	173.380962
01545		0.242363	0.397116	-0.399553	0.789884	-50.215862	-55.187491	173.407808
01546		0.241864	0.399595	-0.396855	0.790147	-49.875040	-55.431382	173.416288
01547		0.241629	0.402525	-0.393590	0.790364	-49.431399	-55.739735	173.360432
01548		0.241879	0.405667	-0.389724	0.790597	-48.843982	-56.095757	173.177752
01549		0.242499	0.409200	-0.384985	0.790908	-48.072885	-56.511497	172.866671
01550		0.243268	0.413100	-0.379386	0.791350	-47.129011	-56.971388	172.454563
01551		0.243705	0.417337	-0.372664	0.792187	-45.987828	-57.443102	171.981367
01552		0.244038	0.422119	-0.365211	0.793021	-44.720437	-57.967601	171.463761
01553		0.244752	0.427646	-0.357197	0.793489	-43.325981	-58.596061	170.844746
01554		0.246547	0.436778	-0.346910	0.792523	-41.524293	-59.697484	169.985468
01555		0.247705	0.442610	-0.338235	0.792676	-39.876085	-60.372486	169.122798
01556		0.243248	0.442100	-0.327396	0.798868	-37.966122	-59.955374	168.576653
01557		0.240739	0.446265	-0.327478	0.797277	-38.437604	-60.373577	169.323113
01558		0.246736	0.444083	-0.329474	0.795838	-38.161205	-60.391668	168.311253
01559		0.250160	0.444501	-0.329806	0.794397	-37.909310	-60.601812	167.737825
01560		0.250516	0.445547	-0.334142	0.791883	-38.864534	-60.815951	168.285160
01561		0.250944	0.445112	-0.338460	0.790156	-39.740264	-60.842722	168.724261
01562		0.251872	0.444332	-0.338802	0.790154	-39.680357	-60.791556	168.540206
01563		0.252651	0.443794	-0.335319	0.791691	-38.816762	-60.707529	167.916971
01564		0.251860	0.443673	-0.331995	0.793410	-38.170791	-60.605656	167.639803
01565		0.250179	0.444456	-0.329799	0.794419	-37.903733	-60.596826	167.730629
01566		0.248939	0.445521	-0.328370	0.794804	-37.771408	-60.655838	167.852239
01567		0.247696	0.445749	-0.327990	0.795221	-37.826121	-60.624279	168.052917
01568		0.246356	0.444429	-0.327087	0.796747	-37.703842	-60.383682	168.108429
01569		0.244829	0.442922	-0.325281	0.798793	-37.400024	-60.098463	168.077364
01570		0.243337	0.442317	-0.323776	0.800195	-37.200883	-59.934430	168.134610
01571		0.241749	0.442077	-0.322395	0.801366	-37.054561	-59.815157	168.247401
01572		0.240689	0.441506	-0.321861	0.802213	-37.020133	-59.689332	168.344472
01573		0.240435	0.440739	-0.322612	0.802410	-37.167926	-59.591823	168.434435
01574		0.240921	0.440097	-0.324388	0.801900	-37.463819	-59.556789	168.517431
01575		0.242226	0.439477	-0.326705	0.800906	-37.795549	-59.568234	168.516159
01576		0.244131	0.438941	-0.329275	0.799568	-38.127581	-59.620942	168.441118
01577		0.246122	0.438631	-0.332079	0.797966	-38.512593	-59.710655	168.393356
01578		0.248143	0.438310	-0.335240	0.796193	-38.971741	-59.806763	168.384245
01579		0.250129	0.437812	-0.338615	0.794415	-39.473643	-59.883175	168.397756
01580		0.251869	0.437193	-0.341893	0.792801	-39.974482	-59.932756	168.438001
01581		0.253401	0.436625	-0.344934	0.791307	-40.449224	-59.976717	168.491977
01582		0.254988	0.435853	-0.347954	0.789900	-40.905010	-59.998065	168.520352
01583		0.256222	0.435063	-0.350854	0.788652	-41.368796	-59.999355	168.597396
01584		0.257102	0.434275	-0.353397	0.787664	-41.789934	-59.979182	168.695166
01585		0.257848	0.433313	-0.355866	0.786838	-42.198171	-59.929856	168.794995
01586		0.258362	0.432270	-0.358191	0.786188	-42.591936	-59.857164	168.912139
01587		0.258611	0.431175	-0.360122	0.785825	-42.921741	-59.759566	169.023416
01588		0.258726	0.430084	-0.361959	0.785541	-43.242881	-59.654396	169.146166
01589		0.258810	0.429107	-0.363816	0.785190	-43.576591	-59.562135	169.283955
01590		0.259327	0.428346	-0.365885	0.784473	-43.929100	-59.521432	169.386625
01591		0.260178	0.427754	-0.368093	0.783480	-44.292010	-59.520818	169.460166
01592		0.261082	0.427438	-0.369914	0.782494	-44.584077	-59.552167	169.498793
01593		0.261976	0.427489	-0.370913	0.781694	-44.723239	-59.617939	169.467935
01594		0.262795	0.427938	-0.370922	0.781168	-44.679733	-59.716086	169.359835
01595		0.263226	0.428965	-0.369320	0.781220	-44.357011	-59.843994	169.166192
01596		0.263503	0.430541	-0.366863	0.781417	-43.893654	-60.020344	168.933766
01597		0.263802	0.432723	-0.364282	0.781318	-43.434102	-60.271479	168.724520
01598		0.264284	0.435392	-0.361565	0.780934	-42.951225	-60.591037	168.495870
01599		0.264972	0.438633	-0.357603	0.780712	-42.199767	-60.974211	168.103747
01600		0.269209	0.443745	-0.354567	0.777753	-41.387383	-61.781721	167.283711
01601		0.260692	0.444049	-0.344350	0.785037	-39.994427	-61.250145	167.575162
01602		0.258279	0.445152	-0.348470	0.783390	-41.214223	-61.337486	168.646779
01603		0.259811	0.443009	-0.348826	0.783940	-41.016946	-61.144844	168.248833
01604		0.263075	0.441201	-0.352184	0.782368	-41.333072	-61.123787	167.942982
01605		0.261082	0.441364	-0.353460	0.782368	-41.822769	-61.066543	168.492430
01606		0.259546	0.440968	-0.355860	0.782014	-42.481768	-60.975356	169.058615
01607		0.259382	0.439267	-0.355890	0.783012	-42.402058	-60.753428	168.962487
01608		0.260310	0.437755	-0.355574	0.783694	-42.154785	-60.604343	168.638063
01609		0.260558	0.436326	-0.353058	0.785544	-41.501146	-60.399511	168.170087
01610		0.259989	0.435742	-0.351175	0.786899	-41.115879	-60.270233	167.997477
01611		0.258678	0.435443	-0.350030	0.788007	-40.978268	-60.152504	168.074462
01612		0.256770	0.434875	-0.348533	0.789606	-40.808371	-59.967941	168.198860
01613		0.254513	0.434131	-0.346904	0.791462	-40.634696	-59.743566	168.358976
01614		0.253160	0.433187	-0.345354	0.793089	-40.383990	-59.538642	168.352411
01615		0.252729	0.432243	-0.345460	0.793694	-40.398820	-59.401380	168.379205
01616		0.252605	0.431371	-0.347518	0.793310	-40.800099	-59.315647	168.588131
01617		0.252744	0.430512	-0.350747	0.792311	-41.423799	-59.260109	168.889039
01618		0.253037	0.429959	-0.354407	0.790888	-42.140932	-59.255413	169.234803
01619		0.253510	0.429585	-0.358348	0.789162	-42.912872	-59.284397	169.596053
01620		0.254546	0.428967	-0.362285	0.787365	-43.622101	-59.310210	169.840731
01621		0.256085	0.427993	-0.365958	0.785695	-44.211248	-59.313981	169.938823
01622		0.257690	0.426892	-0.369452	0.784133	-44.750107	-59.304003	169.994336
01623		0.259222	0.425758	-0.372962	0.782581	-45.297974	-59.287443	170.062277
01624		0.260703	0.424581	-0.376350	0.781106	-45.822435	-59.262244	170.120847
01625		0.261944	0.423364	-0.379509	0.779821	-46.316704	-59.217569	170.190033
01626		0.262938	0.422158	-0.382242	0.778805	-46.741466	-59.156274	170.250421
01627		0.263864	0.420878	-0.384680	0.777984	-47.103583	-59.079276	170.279863
01628		0.264521	0.419710	-0.386609	0.777435	-47.386196	-58.995490	170.302412
01629		0.264947	0.418633	-0.388101	0.777128	-47.599656	-58.905245	170.318589
01630		0.265252	0.417609	-0.389296	0.776977	-47.762792	-58.811435	170.323543
01631		0.265449	0.416666	-0.390276	0.776924	-47.893991	-58.719155	170.327722
01632		0.265614	0.415704	-0.391234	0.776901	-48.021662	-58.622594	170.332592
01633		0.265719	0.414692	-0.392255	0.776891	-48.163860	-58.517542	170.350197
01634		0.265775	0.413596	-0.393238	0.776959	-48.296187	-58.399280	170.364159
01635		0.265664	0.412490	-0.394244	0.777076	-48.445622	-58.270890	170.407260
01636		0.265462	0.411430	-0.395220	0.777211	-48.598223	-58.142881	170.464998
01637		0.265491	0.410617	-0.396207	0.777128	-48.751122	-58.057932	170.506370
01638		0.266090	0.410060	-0.397260	0.776680	-48.890248	-58.036384	170.482606
01639		0.266887	0.409744	-0.397955	0.776217	-48.954138	-58.050917	170.404800
01640		0.267587	0.409898	-0.397977	0.775884	-48.914324	-58.108845	170.304461
01641		0.268290	0.410634	-0.397478	0.775507	-48.802157	-58.231022	170.192197
01642		0.269046	0.411669	-0.396345	0.775276	-48.569786	-58.384413	170.020556
01643		0.269515	0.413275	-0.394067	0.775420	-48.151733	-58.576523	169.807319
01644		0.269997	0.415064	-0.390775	0.775963	-47.524508	-58.777903	169.482162
01645		0.270428	0.416756	-0.386772	0.776911	-46.738424	-58.953886	169.066483
01646		0.271012	0.418823	-0.382882	0.777523	-45.981375	-59.184262	168.661478
01647		0.271872	0.421109	-0.379471	0.777660	-45.309749	-59.462211	168.275466
01648		0.272781	0.423710	-0.375257	0.777973	-44.470217	-59.768297	167.796426
01649		0.274131	0.430237	-0.369305	0.776764	-43.419254	-60.558861	167.296247
01650		0.272980	0.432175	-0.363832	0.778674	-42.433014	-60.654981	166.951255
01651		0.262720	0.429468	-0.355717	0.787401	-41.504929	-59.681810	167.623793
01652		0.257968	0.430181	-0.353528	0.789566	-41.516276	-59.509184	168.264372
01653		0.263628	0.424633	-0.355819	0.789670	-41.201103	-59.120550	167.146490
01654		0.264244	0.424399	-0.355940	0.789536	-41.158993	-59.122570	167.035167
01655		0.260454	0.425140	-0.357213	0.789822	-41.807570	-59.053159	167.911461
01656		0.258931	0.425038	-0.358663	0.789721	-42.244289	-58.988041	168.345921
01657		0.260235	0.424161	-0.358082	0.790027	-41.959987	-58.933429	167.985647
01658		0.262864	0.423483	-0.359338	0.788949	-41.953454	-58.995516	167.621018
01659		0.265289	0.422618	-0.360326	0.788150	-41.899870	-59.020823	167.248176
01660		0.266410	0.422961	-0.362193	0.786732	-42.209608	-59.148177	167.293405
01661		0.266778	0.423578	-0.365333	0.784821	-42.874068	-59.293046	167.646144
01662		0.265876	0.423884	-0.365914	0.784691	-43.095138	-59.295372	167.897929
01663		0.264005	0.424126	-0.364639	0.785784	-43.005137	-59.213069	168.094194
01664		0.262267	0.424329	-0.362248	0.787361	-42.664915	-59.116410	168.131018
01665		0.260894	0.424453	-0.360211	0.788684	-42.363964	-59.033960	168.140656
01666		0.259320	0.424324	-0.358765	0.789930	-42.193526	-58.919521	168.239146
01667		0.257693	0.423945	-0.358094	0.790970	-42.177658	-58.783231	168.420799
01668		0.256391	0.423637	-0.357964	0.791617	-42.249351	-58.679587	168.612790
01669		0.255868	0.423333	-0.358542	0.791687	-42.399933	-58.624532	168.750385
01670		0.256548	0.422675	-0.360309	0.791016	-42.674367	-58.600876	168.790492
01671		0.258610	0.421429	-0.363379	0.789604	-43.069550	-58.591124	168.699327
01672		0.261296	0.419859	-0.367735	0.787537	-43.663981	-58.592634	168.626607
01673		0.263810	0.418473	-0.372965	0.784973	-44.469655	-58.623337	168.700687
01674		0.266136	0.417238	-0.378057	0.782405	-45.275254	-58.663419	168.804757
01675		0.268423	0.415757	-0.382786	0.780109	-45.996612	-58.668076	168.855566
01676		0.270340	0.414300	-0.386962	0.778159	-46.635664	-58.650081	168.907245
01677		0.271872	0.413069	-0.390380	0.776572	-47.160706	-58.629761	168.952903
01678		0.273202	0.411952	-0.392739	0.775508	-47.485035	-58.598592	168.916557
01679		0.274508	0.410747	-0.394538	0.774772	-47.687200	-58.548100	168.810896
01680		0.275758	0.409685	-0.396129	0.774078	-47.858664	-58.509701	168.701428
01681		0.277114	0.408705	-0.397571	0.773373	-47.995460	-58.485435	168.563310
01682		0.278485	0.407603	-0.399441	0.772498	-48.215295	-58.454052	168.463625
01683		0.279776	0.406506	-0.401730	0.771421	-48.531659	-58.425933	168.427403
01684		0.281138	0.405519	-0.403671	0.770432	-48.775494	-58.410647	168.347198
01685		0.282510	0.404531	-0.405520	0.769478	-48.999666	-58.395126	168.254665
01686		0.283891	0.403571	-0.407415	0.768472	-49.234998	-58.384927	168.168320
01687		0.285254	0.402548	-0.409302	0.767500	-49.466946	-58.366700	168.079053
01688		0.286711	0.401402	-0.411316	0.766481	-49.711476	-58.341447	167.979178
01689		0.288371	0.400106	-0.413518	0.765350	-49.971601	-58.313567	167.855205
01690		0.290328	0.398791	-0.415931	0.763987	-50.253872	-58.304864	167.705839
01691		0.292594	0.397464	-0.418578	0.762367	-50.562773	-58.317714	167.532156
01692		0.295055	0.396139	-0.421307	0.760603	-50.876002	-58.345308	167.336737
01693		0.297546	0.394812	-0.424057	0.758792	-51.193020	-58.376692	167.139353
01694		0.299907	0.393509	-0.426781	0.757010	-51.517948	-58.404654	166.963537
01695		0.302237	0.392327	-0.429347	0.755244	-51.820361	-58.444615	166.784859
01696		0.304547	0.391348	-0.431708	0.753476	-52.094503	-58.505778	166.602996
01697		0.306944	0.390470	-0.434006	0.751637	-52.356247	-58.584899	166.408646
01698		0.309478	0.389629	-0.436272	0.749719	-52.604521	-58.677862	166.191775
01699		0.312060	0.388791	-0.438448	0.747813	-52.830874	-58.773995	165.956762
01700		0.314559	0.388104	-0.440315	0.746023	-53.006782	-58.879113	165.711394
01701		0.316903	0.387649	-0.441576	0.744521	-53.076321	-58.992331	165.437404
01702		0.319055	0.387564	-0.442062	0.743356	-53.012425	-59.124157	165.130774
01703		0.320994	0.387818	-0.441899	0.742486	-52.841126	-59.270886	164.806786
01704		0.322669	0.388364	-0.441247	0.741862	-52.598368	-59.426601	164.489112
01705		0.324145	0.389107	-0.440248	0.741422	-52.303396	-59.586489	164.175169
01706		0.325606	0.389880	-0.439206	0.740994	-51.998987	-59.747523	163.857914
01707		0.327189	0.390635	-0.438333	0.740415	-51.718972	-59.917067	163.536751
01708		0.328981	0.391402	-0.437518	0.739699	-51.432050	-60.101375	163.184364
01709		0.330925	0.392212	-0.436751	0.738855	-51.142381	-60.300893	162.811477
01710		0.332989	0.393098	-0.436100	0.737841	-50.869278	-60.519186	162.434380
01711		0.335129	0.394092	-0.435470	0.736713	-50.596231	-60.755446	162.050397
01712		0.337280	0.395137	-0.434825	0.735552	-50.317196	-60.997990	161.661834
01713		0.339409	0.396222	-0.434210	0.734351	-50.044749	-61.244634	161.279296
01714		0.341555	0.397382	-0.433660	0.733053	-49.784709	-61.502944	160.902638
01715		0.343746	0.398607	-0.433153	0.731663	-49.529365	-61.772942	160.523410
01716		0.345979	0.399876	-0.432741	0.730160	-49.289566	-62.053438	160.147291
01717		0.348169	0.401213	-0.432335	0.728624	-49.053684	-62.340061	159.779440
01718		0.350273	0.402671	-0.431917	0.727057	-48.824864	-62.636492	159.429700
01719		0.352208	0.404200	-0.431488	0.725527	-48.608790	-62.931509	159.110366
01720		0.353913	0.405869	-0.430983	0.724065	-48.400734	-63.228690	158.830052
01721		0.355341	0.407592	-0.430402	0.722741	-48.201693	-63.514419	158.592029
01722		0.356488	0.409335	-0.429802	0.721548	-48.025160	-63.785663	158.404284
01723		0.357375	0.411246	-0.429118	0.720428	-47.862313	-64.060898	158.265130
01724		0.358065	0.413274	-0.428328	0.719395	-47.698676	-64.336502	158.155444
01725		0.358502	0.415356	-0.427484	0.718480	-47.550637	-64.602923	158.090465
01726		0.358700	0.417448	-0.426675	0.717649	-47.437925	-64.858113	158.079096
01727		0.358752	0.419462	-0.425938	0.716886	-47.355439	-65.097392	158.102470
01728		0.358657	0.421326	-0.425349	0.716190	-47.320236	-65.313671	158.168938
01729		0.358392	0.422990	-0.424956	0.715575	-47.345321	-65.500328	158.288396
01730		0.357949	0.424500	-0.424808	0.714989	-47.448133	-65.664223	158.474877
01731		0.357332	0.425962	-0.424845	0.714406	-47.619740	-65.817025	158.727425
01732		0.356609	0.427429	-0.425099	0.713740	-47.864707	-65.970348	159.041905
01733		0.355760	0.428905	-0.425583	0.712990	-48.190361	-66.123609	159.426491
01734		0.354806	0.430313	-0.426276	0.712202	-48.585503	-66.266933	159.868444
01735		0.353820	0.431635	-0.427256	0.711305	-49.060966	-66.404123	160.364256
01736		0.352794	0.432836	-0.428429	0.710379	-49.590902	-66.527247	160.896915
01737		0.351718	0.433886	-0.429741	0.709479	-50.158913	-66.629737	161.455829
01738		0.350645	0.434833	-0.431140	0.708581	-50.747554	-66.719709	162.024437
01739		0.349517	0.435769	-0.432592	0.707677	-51.361053	-66.804247	162.617348
01740		0.348317	0.436673	-0.434155	0.706754	-52.016183	-66.880536	163.246850
01741		0.347022	0.437484	-0.435854	0.705844	-52.716229	-66.939524	163.914656
01742		0.345667	0.438209	-0.437601	0.704977	-53.432529	-66.982187	164.597600
01743		0.344277	0.438878	-0.439367	0.704142	-54.155623	-67.012936	165.287312
01744		0.342927	0.439471	-0.441204	0.703282	-54.888732	-67.035336	165.974740
01745		0.341677	0.439975	-0.443118	0.702371	-55.625594	-67.051868	166.647259
01746		0.340543	0.440335	-0.445194	0.701383	-56.381148	-67.058375	167.309190
01747		0.339461	0.440603	-0.447411	0.700327	-57.162432	-67.056554	167.976199
01748		0.338397	0.440895	-0.449575	0.699271	-57.930491	-67.055266	168.633554
01749		0.337315	0.441130	-0.451692	0.698282	-58.680220	-67.042016	169.277477
01750		0.336260	0.441345	-0.453680	0.697365	-59.387636	-67.023693	169.888439
01751		0.335219	0.441530	-0.455421	0.696615	-60.017513	-66.996832	170.444072
01752		0.334180	0.441769	-0.456920	0.695980	-60.584246	-66.971721	170.960842
01753		0.333123	0.442096	-0.458227	0.695420	-61.108073	-66.951824	171.456750
01754		0.332142	0.442437	-0.459405	0.694894	-61.589342	-66.936261	171.915849
01755		0.331255	0.442762	-0.460531	0.694365	-62.044178	-66.923757	172.344865
01756		0.330520	0.443053	-0.461619	0.693808	-62.469151	-66.916622	172.733321
01757		0.329902	0.443257	-0.462742	0.693222	-62.881893	-66.907247	173.093727
01758		0.329346	0.443429	-0.463811	0.692662	-63.268284	-66.897191	173.426938
01759		0.328902	0.443598	-0.464825	0.692086	-63.628194	-66.893750	173.728945
01760		0.328583	0.443865	-0.465676	0.691493	-63.945219	-66.909387	173.994529
01761		0.328376	0.444164	-0.466358	0.690940	-64.208838	-66.935188	174.213840
01762		0.328219	0.444578	-0.466914	0.690372	-64.449424	-66.977143	174.420122
01763		0.328074	0.445146	-0.467337	0.689789	-64.674978	-67.036766	174.626206
01764		0.327896	0.445789	-0.467696	0.689214	-64.897904	-67.102193	174.839988
01765		0.327649	0.446526	-0.467989	0.688655	-65.123249	-67.172647	175.070734
01766		0.327312	0.447344	-0.468149	0.688177	-65.331003	-67.244618	175.306611
01767		0.326892	0.448242	-0.468208	0.687752	-65.530227	-67.318851	175.552672
01768		0.326399	0.449284	-0.468005	0.687444	-65.682855	-67.402674	175.787199
01769		0.325871	0.450484	-0.467496	0.687255	-65.774694	-67.500304	175.997141
01770		0.325459	0.451771	-0.466928	0.686992	-65.855400	-67.616794	176.192523
01771		0.325188	0.453017	-0.466408	0.686652	-65.933902	-67.739535	176.367409
01772		0.325076	0.454205	-0.466197	0.686064	-66.084928	-67.869220	176.568615
01773		0.325111	0.455417	-0.466116	0.685298	-66.270197	-68.013551	176.778035
01774		0.325216	0.456549	-0.466005	0.684571	-66.428921	-68.153549	176.956143
01775		0.325330	0.457603	-0.465873	0.683902	-66.568984	-68.285102	177.115594
01776		0.325461	0.458623	-0.465722	0.683259	-66.697523	-68.413941	177.263156
01777		0.325510	0.459645	-0.465465	0.682724	-66.801955	-68.536163	177.404630
01778		0.325490	0.460729	-0.465083	0.682263	-66.886240	-68.659913	177.545370
01779		0.325520	0.461787	-0.464619	0.681850	-66.937070	-68.784148	177.655889
01780		0.325630	0.462767	-0.464164	0.681442	-66.970419	-68.905714	177.739428
01781		0.325849	0.463642	-0.463631	0.681106	-66.950146	-69.023193	177.765597
01782		0.326093	0.464419	-0.462982	0.680901	-66.871765	-69.130888	177.741528
01783		0.326261	0.465157	-0.462219	0.680835	-66.755347	-69.227869	177.696875
01784		0.326364	0.465916	-0.461405	0.680819	-66.632425	-69.322145	177.656860
01785		0.326518	0.466682	-0.460505	0.680829	-66.477613	-69.421026	177.588901
01786		0.326793	0.467490	-0.459580	0.680768	-66.311398	-69.533980	177.501622
01787		0.327329	0.468302	-0.458785	0.680489	-66.163176	-69.668172	177.395667
01788		0.328085	0.468984	-0.458107	0.680112	-66.005769	-69.804371	177.247262
01789		0.328950	0.469502	-0.457463	0.679770	-65.815411	-69.929694	177.050002
01790		0.329661	0.470032	-0.456747	0.679541	-65.616208	-70.043952	176.865130
01791		0.330166	0.470600	-0.455831	0.679518	-65.376163	-70.146109	176.678357
01792		0.330462	0.471276	-0.454717	0.679651	-65.110209	-70.243976	176.505545
01793		0.330679	0.472009	-0.453480	0.679864	-64.820319	-70.341801	176.328659
01794		0.330876	0.472765	-0.452156	0.680125	-64.506488	-70.440247	176.138517
01795		0.331141	0.473461	-0.450781	0.680424	-64.154374	-70.536308	175.907913
01796		0.331528	0.474115	-0.449280	0.680772	-63.736582	-70.635348	175.612053
01797		0.332010	0.474776	-0.447773	0.681071	-63.304319	-70.741725	175.293811
01798		0.332601	0.475436	-0.446332	0.681267	-62.879285	-70.856191	174.966011
01799		0.333298	0.476151	-0.444969	0.681319	-62.475270	-70.985490	174.642562
01800		0.334115	0.476860	-0.443614	0.681307	-62.054985	-71.122308	174.290873
01801		0.335055	0.477475	-0.442220	0.681320	-61.584019	-71.255826	173.879600
01802		0.336101	0.478010	-0.440797	0.681352	-61.069108	-71.386058	173.416379
01803		0.337240	0.478488	-0.439377	0.681371	-60.527284	-71.514986	172.916476
01804		0.338475	0.478908	-0.437814	0.681470	-59.906298	-71.640800	172.341570
01805		0.339843	0.479214	-0.436136	0.681650	-59.199797	-71.758784	171.678377
01806		0.341283	0.479481	-0.434509	0.681781	-58.486904	-71.875662	170.996357
01807		0.342742	0.479746	-0.432795	0.681953	-57.732376	-71.990032	170.279174
01808		0.344198	0.479967	-0.430933	0.682243	-56.910656	-72.093910	169.508321
01809		0.345574	0.480187	-0.428958	0.682638	-56.052169	-72.187144	168.718772
01810		0.346923	0.480432	-0.426938	0.683048	-55.178425	-72.277968	167.920578
01811		0.348366	0.480604	-0.424949	0.683432	-54.283033	-72.363155	167.087704
01812		0.349858	0.480748	-0.422921	0.683827	-53.354671	-72.443720	166.220469
01813		0.351490	0.480790	-0.420824	0.684254	-52.358250	-72.514950	165.277046
01814		0.353311	0.480795	-0.418726	0.684599	-51.318528	-72.589359	164.272096
01815		0.355322	0.480780	-0.416581	0.684877	-50.219689	-72.667381	163.194264
01816		0.357477	0.480739	-0.414392	0.685113	-49.068781	-72.744596	162.054525
01817		0.359741	0.480685	-0.412130	0.685330	-47.862670	-72.818856	160.855685
01818		0.362116	0.480609	-0.409871	0.685488	-46.626428	-72.890472	159.615179
01819		0.364606	0.480509	-0.407725	0.685517	-45.396833	-72.962287	158.358912
01820		0.367253	0.480358	-0.405684	0.685422	-44.159832	-73.032770	157.069397
01821		0.370046	0.480180	-0.403665	0.685235	-42.890630	-73.101725	155.730807
01822		0.373089	0.479909	-0.401601	0.684988	-41.540080	-73.162390	154.289941
01823		0.376315	0.479505	-0.399472	0.684751	-40.114334	-73.203601	152.760311
01824		0.379671	0.479053	-0.397349	0.684450	-38.655182	-73.235762	151.182975
01825		0.383154	0.478601	-0.395312	0.684005	-37.193051	-73.267918	149.581519
01826		0.386845	0.478005	-0.393291	0.683509	-35.683823	-73.280871	147.908892
01827		0.390649	0.477232	-0.391212	0.683078	-34.130327	-73.261095	146.183127
01828		0.394397	0.476340	-0.389115	0.682745	-32.591888	-73.209821	144.476500
01829		0.397988	0.475353	-0.387022	0.682538	-31.106215	-73.127708	142.834385
01830		0.401531	0.474274	-0.384972	0.682374	-29.665565	-73.022660	141.235357
01831		0.405156	0.472996	-0.383041	0.682205	-28.271674	-72.890145	139.659993
01832		0.408864	0.471591	-0.381186	0.682004	-26.911991	-72.738448	138.100690
01833		0.412677	0.470116	-0.379424	0.681708	-25.584748	-72.577514	136.552761
01834		0.416671	0.468553	-0.377802	0.681255	-24.287083	-72.410661	135.001084
01835		0.420752	0.466994	-0.376206	0.680701	-23.001785	-72.240432	133.449662
01836		0.424861	0.465475	-0.374522	0.680117	-21.708198	-72.062768	131.894258
01837		0.429010	0.463925	-0.372693	0.679576	-20.398179	-71.864509	130.329926
01838		0.433211	0.462353	-0.370774	0.679032	-19.086092	-71.650112	128.764722
01839		0.437419	0.460879	-0.368759	0.678434	-17.767628	-71.433615	127.201195
01840		0.441620	0.459504	-0.366663	0.677781	-16.449265	-71.215496	125.645487
01841		0.445781	0.458113	-0.364544	0.677141	-15.168695	-70.983961	124.131507
01842		0.449853	0.456673	-0.362368	0.676588	-13.936384	-70.731680	122.677197
01843		0.453757	0.455289	-0.360029	0.676162	-12.731138	-70.463752	121.280618
01844		0.457546	0.453958	-0.357565	0.675811	-11.550560	-70.183820	119.930756
01845		0.461250	0.452695	-0.354984	0.675501	-10.386654	-69.895167	118.616230
01846		0.464928	0.451455	-0.352443	0.675140	-9.265484	-69.604928	117.341961
01847		0.468565	0.450232	-0.349938	0.674745	-8.187829	-69.312569	116.110629
01848		0.472109	0.448976	-0.347388	0.674430	-7.158464	-69.005523	114.938754
01849		0.475586	0.447699	-0.344932	0.674096	-6.193744	-68.697283	113.827829
01850		0.479078	0.446290	-0.342675	0.673708	-5.312891	-68.384239	112.777201
01851		0.482647	0.444746	-0.340590	0.673239	-4.496492	-68.065404	111.763774
01852		0.486323	0.443143	-0.338682	0.672613	-3.722502	-67.750746	110.763093
01853		0.490015	0.441635	-0.336991	0.671774	-2.983074	-67.461154	109.775380
01854		0.493644	0.440267	-0.335315	0.670854	-2.250183	-67.184944	108.800152
01855		0.497117	0.439049	-0.333465	0.670009	-1.509469	-66.907915	107.849808
01856		0.500480	0.437874	-0.331442	0.669277	-0.773581	-66.617935	106.930642
01857		0.503754	0.436677	-0.329256	0.668682	-0.054006	-66.308781	106.049928
01858		0.506888	0.435413	-0.326901	0.668293	0.630498	-65.975558	105.231401
01859		0.509872	0.434120	-0.324506	0.668031	1.268172	-65.633492	104.477087
01860		0.512770	0.432796	-0.322322	0.667730	1.838153	-65.303808	103.778560
01861		0.515629	0.431535	-0.320266	0.667333	2.382605	-64.989836	103.097854
01862		0.518466	0.430338	-0.318301	0.666848	2.911273	-64.688539	102.426954
01863		0.521235	0.429243	-0.316471	0.666266	3.419598	-64.407881	101.772053
01864		0.523883	0.428300	-0.314746	0.665613	3.913842	-64.150729	101.136247
01865		0.526413	0.427440	-0.313120	0.664936	4.383221	-63.909670	100.529446
01866		0.528811	0.426628	-0.311553	0.664291	4.823602	-63.677875	99.960345
01867		0.531101	0.425792	-0.310097	0.663681	5.220566	-63.452711	99.434918
01868		0.533365	0.424908	-0.308831	0.663022	5.574403	-63.238184	98.936767
01869		0.535591	0.424027	-0.307673	0.662330	5.904219	-63.032610	98.456288
01870		0.537830	0.423126	-0.306680	0.661552	6.208557	-62.838425	97.984039
01871		0.540048	0.422263	-0.305874	0.660669	6.492001	-62.663493	97.518371
01872		0.542201	0.421480	-0.305143	0.659743	6.769245	-62.502980	97.059851
01873		0.544287	0.420748	-0.304470	0.658802	7.036398	-62.352321	96.613755
01874		0.546317	0.419972	-0.303958	0.657853	7.265038	-62.211579	96.196493
01875		0.548225	0.419286	-0.303507	0.656911	7.483449	-62.085444	95.798410
01876		0.550091	0.418615	-0.303034	0.655997	7.698367	-61.959103	95.410149
01877		0.551989	0.417837	-0.302498	0.655145	7.901039	-61.816443	95.033748
01878		0.553829	0.417072	-0.302006	0.654307	8.090193	-61.679127	94.672962
01879		0.555580	0.416353	-0.301557	0.653486	8.268383	-61.550836	94.329417
01880		0.557262	0.415693	-0.301095	0.652686	8.447377	-61.427515	93.994411
01881		0.558813	0.415093	-0.300644	0.651950	8.615187	-61.312065	93.684913
01882		0.560259	0.414548	-0.300189	0.651265	8.776831	-61.202671	93.394179
01883		0.561653	0.413992	-0.299753	0.650619	8.924831	-61.094192	93.120659
01884		0.563013	0.413341	-0.299357	0.650040	9.042930	-60.981085	92.875080
01885		0.564353	0.412704	-0.299056	0.649420	9.150430	-60.877722	92.633714
01886		0.565626	0.412092	-0.298844	0.648799	9.243436	-60.785301	92.406628
01887		0.566757	0.411605	-0.298586	0.648240	9.343728	-60.702223	92.194307
01888		0.567814	0.411136	-0.298290	0.647749	9.439248	-60.618366	91.998590
01889		0.568856	0.410650	-0.298032	0.647261	9.524845	-60.536594	91.810438
01890		0.569903	0.410140	-0.297819	0.646761	9.601446	-60.456430	91.626115
01891		0.570903	0.409635	-0.297645	0.646279	9.667958	-60.380887	91.453655
01892		0.571816	0.409178	-0.297451	0.645850	9.732331	-60.309151	91.295540
01893		0.572680	0.408748	-0.297307	0.645423	9.789770	-60.244964	91.145780
01894		0.573451	0.408296	-0.297206	0.645071	9.824190	-60.183998	91.025097
01895		0.574219	0.407757	-0.297202	0.644731	9.831191	-60.123909	90.921845
01896		0.574961	0.407225	-0.297277	0.644371	9.828486	-60.072083	90.824034
01897		0.575643	0.406768	-0.297346	0.644019	9.832380	-60.027188	90.728325
01898		0.576273	0.406343	-0.297379	0.643708	9.838342	-59.982863	90.640092
01899		0.576853	0.405941	-0.297462	0.643405	9.836607	-59.945771	90.561286
01900		0.577410	0.405588	-0.297603	0.643061	9.836450	-59.918619	90.479035
01901		0.577980	0.405231	-0.297782	0.642692	9.833612	-59.894245	90.394510
01902		0.578593	0.404879	-0.298031	0.642246	9.832294	-59.876109	90.297432
01903		0.579228	0.404460	-0.298264	0.641830	9.822007	-59.850119	90.206870
01904		0.579830	0.404059	-0.298491	0.641434	9.810997	-59.825860	90.121658
01905		0.580399	0.403671	-0.298704	0.641064	9.798827	-59.801972	90.042585
01906		0.580937	0.403319	-0.298889	0.640711	9.792150	-59.779409	89.964775
01907		0.581477	0.403005	-0.298979	0.640377	9.801598	-59.751546	89.879777
01908		0.581965	0.402808	-0.299046	0.640026	9.829430	-59.732775	89.786728
01909		0.582433	0.402584	-0.299327	0.639611	9.829393	-59.731077	89.704158
01910		0.582768	0.402495	-0.299648	0.639211	9.833628	-59.746999	89.631387
01911		0.583067	0.402430	-0.299849	0.638885	9.847839	-59.754698	89.563963
01912		0.583432	0.402275	-0.299940	0.638606	9.863434	-59.743645	89.495574
01913		0.583807	0.402094	-0.300039	0.638331	9.874518	-59.730905	89.429307
01914		0.584174	0.401919	-0.300130	0.638062	9.886437	-59.718218	89.364005
01915		0.584533	0.401709	-0.300282	0.637794	9.884572	-59.707937	89.307179
01916		0.584856	0.401476	-0.300451	0.637566	9.870897	-59.697700	89.264317
01917		0.585138	0.401269	-0.300544	0.637393	9.863185	-59.683714	89.227388
01918		0.585414	0.401036	-0.300654	0.637235	9.847616	-59.668966	89.196987
01919		0.585649	0.400804	-0.300760	0.637115	9.826628	-59.654568	89.177038
01920		0.585867	0.400619	-0.300849	0.636988	9.814231	-59.643070	89.152843
01921		0.586082	0.400428	-0.300970	0.636854	9.797047	-59.633996	89.130869
01922		0.586316	0.400259	-0.301082	0.636691	9.788332	-59.625790	89.099371
01923		0.586577	0.400094	-0.301191	0.636504	9.784458	-59.617162	89.060425
01924		0.586841	0.399882	-0.301314	0.636335	9.770530	-59.605719	89.028856
01925		0.587070	0.399709	-0.301470	0.636158	9.756390	-59.601194	88.999306
01926		0.587277	0.399562	-0.301601	0.635997	9.746372	-59.597080	88.971003
01927		0.587490	0.399413	-0.301722	0.635837	9.737782	-59.591725	88.941390
01928		0.587715	0.399286	-0.301742	0.635699	9.743995	-59.578994	88.905068
01929		0.587965	0.399125	-0.301876	0.635505	9.737407	-59.573274	88.867750
01930		0.588194	0.398948	-0.302151	0.635274	9.712183	-59.579076	88.838549
01931		0.588361	0.398842	-0.302389	0.635072	9.695296	-59.588893	88.812774
01932		0.588550	0.398711	-0.302543	0.634906	9.683899	-59.588479	88.786088
01933		0.588706	0.398586	-0.302672	0.634779	9.670739	-59.586799	88.767338
01934		0.588882	0.398455	-0.302850	0.634613	9.655416	-59.588848	88.743800
01935		0.589043	0.398327	-0.303028	0.634459	9.638338	-59.591301	88.723942
01936		0.589182	0.398210	-0.303204	0.634319	9.620375	-59.594955	88.707840
01937		0.589305	0.398094	-0.303367	0.634199	9.601311	-59.597787	88.695688
01938		0.589430	0.397968	-0.303532	0.634084	9.580198	-59.599795	88.685088
01939		0.589557	0.397814	-0.303697	0.633983	9.553805	-59.599378	88.679018
01940		0.589722	0.397652	-0.303935	0.633817	9.525287	-59.604347	88.663891
01941		0.589871	0.397495	-0.304226	0.633638	9.490805	-59.614679	88.651996
01942		0.590027	0.397373	-0.304455	0.633458	9.470064	-59.622500	88.631677
01943		0.590123	0.397319	-0.304626	0.633320	9.458894	-59.631865	88.615371
01944		0.590185	0.397317	-0.304768	0.633196	9.455610	-59.643595	88.598826
01945		0.590207	0.397380	-0.304854	0.633095	9.464435	-59.656472	88.581019
01946		0.590232	0.397428	-0.304877	0.633031	9.476063	-59.662337	88.565483
01947		0.590230	0.397445	-0.304906	0.633007	9.476820	-59.666571	88.562556
01948		0.590209	0.397457	-0.305029	0.632961	9.465255	-59.679013	88.565801
01949		0.590193	0.397455	-0.305189	0.632900	9.448794	-59.693562	88.569721
01950		0.590195	0.397455	-0.305350	0.632819	9.435313	-59.708100	88.568405
