// General information: 
//  MT Manager version: 2022.2.0 
//  XDA version: 2022.2.0 build 7381 rev 124627 built on 2023-07-19
// Device information: 
//  DeviceId: 10B414FE
//  ProductCode: MTW2-3A7G6
//  Firmware Version: 4.14.0
//  Hardware Version: 3.0.0
// Device settings: 
//  Filter Profile: human(46.1)
//  Option Flags: Orientation Smoother Disabled, Position/Velocity Smoother Disabled, Continuous Zero Rotation Update Disabled, AHS Disabled, ICC Disabled
// Coordinate system: ENU
PacketCounter	SampleTimeFine	Quat_q0	Quat_q1	Quat_q2	Quat_q3	Roll	Pitch	Yaw
00370		-0.725386	0.131832	0.646298	0.196809	25.932482	-81.698913	-52.879417
00371		-0.725086	0.131668	0.646663	0.196826	26.254538	-81.731261	-53.188711
00372		-0.724840	0.131509	0.646960	0.196861	26.539746	-81.754977	-53.463081
00373		-0.724669	0.131348	0.647172	0.196903	26.771265	-81.768106	-53.684523
00374		-0.724508	0.131183	0.647382	0.196915	26.989854	-81.781714	-53.890020
00375		-0.724335	0.130999	0.647609	0.196928	27.228945	-81.796140	-54.114641
00376		-0.724163	0.130798	0.647840	0.196934	27.475263	-81.809906	-54.344414
00377		-0.724020	0.130558	0.648072	0.196856	27.697582	-81.824203	-54.539940
00378		-0.723920	0.130304	0.648265	0.196757	27.888748	-81.833920	-54.701416
00379		-0.723894	0.130096	0.648346	0.196724	28.014184	-81.830956	-54.806784
00380		-0.723869	0.129915	0.648403	0.196745	28.137591	-81.825105	-54.916908
00381		-0.723818	0.129776	0.648472	0.196796	28.267188	-81.822104	-55.039232
00382		-0.723752	0.129704	0.648527	0.196907	28.388645	-81.819535	-55.164028
00383		-0.723687	0.129631	0.648586	0.197002	28.505949	-81.817985	-55.283124
00384		-0.723638	0.129570	0.648621	0.197106	28.605477	-81.814115	-55.386308
00385		-0.723622	0.129573	0.648605	0.197214	28.645438	-81.808446	-55.435706
00386		-0.723629	0.129578	0.648566	0.197312	28.662245	-81.800545	-55.461217
00387		-0.723654	0.129655	0.648478	0.197462	28.640420	-81.789813	-55.458526
00388		-0.723666	0.129755	0.648377	0.197685	28.636143	-81.776232	-55.481445
00389		-0.723657	0.129910	0.648291	0.197899	28.615836	-81.768442	-55.492084
00390		-0.723650	0.130023	0.648216	0.198093	28.611343	-81.759984	-55.513385
00391		-0.723672	0.130085	0.648144	0.198209	28.591047	-81.751265	-55.508103
00392		-0.723683	0.130056	0.648118	0.198274	28.614635	-81.743970	-55.534814
00393		-0.723698	0.129965	0.648116	0.198285	28.654171	-81.737368	-55.567855
00394		-0.723712	0.129890	0.648108	0.198307	28.688340	-81.730714	-55.597613
00395		-0.723754	0.129782	0.648093	0.198274	28.703915	-81.723220	-55.601627
00396		-0.723785	0.129678	0.648089	0.198242	28.726107	-81.717184	-55.612539
00397		-0.723848	0.129601	0.648039	0.198225	28.713005	-81.707182	-55.591750
00398		-0.723886	0.129575	0.647983	0.198285	28.711650	-81.696758	-55.593410
00399		-0.723926	0.129564	0.647927	0.198328	28.696482	-81.688018	-55.581103
00400		-0.723942	0.129555	0.647890	0.198399	28.707224	-81.680479	-55.597113
00401		-0.723964	0.129547	0.647849	0.198460	28.709835	-81.672929	-55.604218
00402		-0.723970	0.129582	0.647801	0.198567	28.713425	-81.665761	-55.619842
00403		-0.723981	0.129648	0.647739	0.198690	28.701583	-81.658236	-55.624005
00404		-0.723982	0.129693	0.647679	0.198851	28.718247	-81.648310	-55.658038
00405		-0.723990	0.129706	0.647626	0.198985	28.739259	-81.637945	-55.691473
00406		-0.724005	0.129669	0.647596	0.199053	28.763420	-81.629515	-55.718405
00407		-0.724025	0.129624	0.647560	0.199124	28.789533	-81.619821	-55.746814
00408		-0.724052	0.129550	0.647542	0.199135	28.810062	-81.612521	-55.762210
00409		-0.724069	0.129429	0.647551	0.199120	28.856071	-81.606234	-55.796983
00410		-0.724047	0.129323	0.647598	0.199119	28.929411	-81.604579	-55.861420
00411		-0.724019	0.129285	0.647619	0.199175	28.985194	-81.602403	-55.918771
00412		-0.724000	0.129307	0.647593	0.199317	29.024811	-81.595452	-55.972154
00413		-0.724010	0.129362	0.647518	0.199487	29.030224	-81.583972	-55.996609
00414		-0.724016	0.129442	0.647428	0.199704	29.037669	-81.570747	-56.029101
00415		-0.724023	0.129541	0.647337	0.199911	29.031909	-81.558898	-56.049080
00416		-0.724018	0.129570	0.647287	0.200072	29.060697	-81.548992	-56.093929
00417		-0.724001	0.129577	0.647269	0.200187	29.099266	-81.542993	-56.142781
00418		-0.723966	0.129549	0.647292	0.200256	29.158064	-81.541077	-56.205029
00419		-0.723965	0.129525	0.647292	0.200277	29.177133	-81.538692	-56.223934
00420		-0.723988	0.129479	0.647277	0.200274	29.181837	-81.534052	-56.224667
00421		-0.724028	0.129426	0.647246	0.200264	29.175672	-81.527419	-56.213339
00422		-0.724054	0.129317	0.647252	0.200218	29.199913	-81.522694	-56.224693
00423		-0.724078	0.129246	0.647244	0.200203	29.214159	-81.517779	-56.231779
00424		-0.724077	0.129240	0.647225	0.200274	29.235599	-81.512454	-56.258715
00425		-0.724074	0.129270	0.647180	0.200408	29.254371	-81.504198	-56.291446
00426		-0.724044	0.129337	0.647140	0.200603	29.291494	-81.496572	-56.350514
00427		-0.724030	0.129495	0.647046	0.200856	29.282263	-81.486475	-56.375896
00428		-0.724022	0.129659	0.646957	0.201066	29.255219	-81.479213	-56.380212
00429		-0.724055	0.129709	0.646875	0.201179	29.230911	-81.468825	-56.369664
00430		-0.724103	0.129688	0.646803	0.201251	29.221294	-81.456497	-56.364592
00431		-0.724136	0.129588	0.646787	0.201249	29.246342	-81.448196	-56.381241
00432		-0.724167	0.129442	0.646808	0.201163	29.276360	-81.444332	-56.391947
00433		-0.724244	0.129284	0.646788	0.201053	29.270724	-81.435863	-56.364022
00434		-0.724334	0.129099	0.646764	0.200921	29.263021	-81.426122	-56.330106
00435		-0.724413	0.128904	0.646756	0.200788	29.269255	-81.417492	-56.309038
00436		-0.724479	0.128679	0.646763	0.200672	29.304754	-81.407980	-56.316154
00437		-0.724534	0.128426	0.646789	0.200553	29.363032	-81.398865	-56.343575
00438		-0.724610	0.128176	0.646788	0.200440	29.404125	-81.386703	-56.354478
00439		-0.724684	0.127987	0.646770	0.200353	29.422173	-81.375530	-56.349719
00440		-0.724784	0.127816	0.646712	0.200288	29.415953	-81.360303	-56.324077
00441		-0.724890	0.127705	0.646621	0.200267	29.384632	-81.343607	-56.281970
00442		-0.724972	0.127604	0.646564	0.200218	29.360294	-81.332378	-56.245375
00443		-0.725058	0.127501	0.646513	0.200137	29.326943	-81.323053	-56.196829
00444		-0.725150	0.127397	0.646458	0.200049	29.287310	-81.313371	-56.141222
00445		-0.725293	0.127238	0.646362	0.199939	29.231526	-81.296412	-56.063362
00446		-0.725399	0.127039	0.646337	0.199764	29.208983	-81.287250	-56.009707
00447		-0.725487	0.126796	0.646340	0.199587	29.221832	-81.278502	-55.987655
00448		-0.725576	0.126494	0.646356	0.199407	29.263054	-81.267514	-55.988842
00449		-0.725668	0.126176	0.646368	0.199234	29.311697	-81.254716	-55.996702
00450		-0.725752	0.125864	0.646380	0.199084	29.367838	-81.241495	-56.014509
00451		-0.725844	0.125563	0.646388	0.198911	29.407499	-81.229395	-56.014774
00452		-0.725947	0.125279	0.646377	0.198753	29.433985	-81.215673	-56.004628
00453		-0.726065	0.125027	0.646340	0.198603	29.434180	-81.200811	-55.971449
00454		-0.726132	0.124786	0.646352	0.198469	29.471813	-81.191588	-55.977927
00455		-0.726188	0.124530	0.646382	0.198327	29.522923	-81.183715	-55.995953
00456		-0.726255	0.124275	0.646395	0.198200	29.569431	-81.173508	-56.010770
00457		-0.726333	0.124025	0.646398	0.198060	29.601046	-81.162957	-56.010112
00458		-0.726381	0.123754	0.646447	0.197894	29.659967	-81.157184	-56.032605
00459		-0.726417	0.123465	0.646512	0.197730	29.737420	-81.152018	-56.072271
00460		-0.726446	0.123207	0.646588	0.197534	29.796615	-81.151386	-56.093654
00461		-0.726508	0.122951	0.646611	0.197391	29.843426	-81.142755	-56.107314
00462		-0.726546	0.122710	0.646651	0.197269	29.904415	-81.136357	-56.138092
00463		-0.726561	0.122490	0.646711	0.197154	29.974584	-81.133160	-56.180458
00464		-0.726573	0.122211	0.646794	0.197013	30.070414	-81.129698	-56.241189
00465		-0.726598	0.121967	0.646861	0.196851	30.133716	-81.127581	-56.270744
00466		-0.726617	0.121727	0.646929	0.196706	30.203903	-81.125308	-56.308805
00467		-0.726654	0.121485	0.646985	0.196534	30.254557	-81.122490	-56.324998
00468		-0.726688	0.121237	0.647052	0.196341	30.305564	-81.121303	-56.339228
00469		-0.726722	0.121033	0.647107	0.196159	30.337912	-81.121394	-56.339395
00470		-0.726729	0.120879	0.647167	0.196030	30.378158	-81.123122	-56.355977
00471		-0.726738	0.120775	0.647204	0.195942	30.402069	-81.123885	-56.363827
00472		-0.726727	0.120750	0.647233	0.195899	30.412412	-81.127257	-56.368475
00473		-0.726735	0.120753	0.647227	0.195890	30.403198	-81.127071	-56.358719
00474		-0.726749	0.120752	0.647200	0.195923	30.399899	-81.122794	-56.358236
00475		-0.726752	0.120734	0.647190	0.195958	30.414806	-81.119100	-56.374589
00476		-0.726750	0.120708	0.647173	0.196038	30.447894	-81.112240	-56.412337
00477		-0.726741	0.120681	0.647178	0.196070	30.474484	-81.109745	-56.439414
00478		-0.726720	0.120615	0.647201	0.196115	30.533284	-81.106097	-56.496513
00479		-0.726716	0.120572	0.647186	0.196204	30.576981	-81.098121	-56.544209
00480		-0.726715	0.120538	0.647158	0.196322	30.620967	-81.087987	-56.595330
00481		-0.726709	0.120525	0.647117	0.196487	30.669549	-81.075909	-56.656782
00482		-0.726702	0.120513	0.647072	0.196668	30.721405	-81.062891	-56.723032
00483		-0.726687	0.120517	0.647028	0.196867	30.775482	-81.050198	-56.794248
00484		-0.726662	0.120501	0.647030	0.196962	30.824010	-81.045597	-56.849420
00485		-0.726650	0.120433	0.647040	0.197014	30.876825	-81.040081	-56.901084
00486		-0.726658	0.120330	0.647057	0.196992	30.915722	-81.036103	-56.929560
00487		-0.726692	0.120167	0.647073	0.196913	30.950468	-81.030317	-56.944276
00488		-0.726716	0.119999	0.647103	0.196830	30.994957	-81.025823	-56.967909
00489		-0.726757	0.119819	0.647119	0.196735	31.029025	-81.019607	-56.979084
00490		-0.726832	0.119616	0.647104	0.196630	31.045646	-81.008702	-56.970262
00491		-0.726907	0.119420	0.647087	0.196530	31.060683	-80.997975	-56.960838
00492		-0.726950	0.119233	0.647108	0.196414	31.091492	-80.992660	-56.966387
00493		-0.726971	0.119075	0.647131	0.196359	31.139179	-80.986993	-56.996441
00494		-0.726990	0.118950	0.647141	0.196329	31.178015	-80.981106	-57.022501
00495		-0.726996	0.118855	0.647157	0.196311	31.214417	-80.977257	-57.049494
00496		-0.727003	0.118765	0.647169	0.196298	31.249266	-80.973221	-57.075867
00497		-0.727047	0.118673	0.647137	0.196299	31.259989	-80.963608	-57.079160
00498		-0.727076	0.118577	0.647128	0.196279	31.278810	-80.957027	-57.088436
00499		-0.727095	0.118467	0.647136	0.196250	31.311044	-80.951774	-57.109159
00500		-0.727084	0.118353	0.647173	0.196235	31.369424	-80.948913	-57.156847
00501		-0.727112	0.118306	0.647166	0.196182	31.358928	-80.947209	-57.138061
00502		-0.727132	0.118275	0.647153	0.196172	31.356709	-80.944201	-57.132478
00503		-0.727165	0.118258	0.647132	0.196129	31.330468	-80.942505	-57.101204
00504		-0.727184	0.118219	0.647137	0.196065	31.320612	-80.943087	-57.082777
00505		-0.727187	0.118205	0.647143	0.196040	31.318569	-80.943909	-57.077487
00506		-0.727162	0.118250	0.647162	0.196047	31.318523	-80.948586	-57.081707
00507		-0.727163	0.118294	0.647150	0.196052	31.297332	-80.950077	-57.064501
00508		-0.727197	0.118362	0.647093	0.196073	31.243964	-80.947382	-57.018682
00509		-0.727215	0.118386	0.647068	0.196077	31.219684	-80.945998	-56.996773
00510		-0.727221	0.118349	0.647082	0.196031	31.222601	-80.946998	-56.992679
00511		-0.727224	0.118258	0.647136	0.195895	31.234342	-80.952472	-56.985428
00512		-0.727236	0.118201	0.647164	0.195792	31.229482	-80.956048	-56.967116
00513		-0.727242	0.118196	0.647187	0.195696	31.206259	-80.962187	-56.935390
00514		-0.727252	0.118262	0.647166	0.195689	31.165660	-80.964568	-56.899657
00515		-0.727263	0.118414	0.647099	0.195779	31.104558	-80.963442	-56.858739
00516		-0.727273	0.118555	0.647028	0.195891	31.054949	-80.960423	-56.830356
00517		-0.727298	0.118667	0.646949	0.195991	31.004010	-80.954914	-56.797166
00518		-0.727339	0.118689	0.646883	0.196043	30.974404	-80.946987	-56.773805
00519		-0.727378	0.118596	0.646874	0.195987	30.977114	-80.942141	-56.764191
00520		-0.727406	0.118435	0.646908	0.195866	31.005831	-80.940236	-56.769544
00521		-0.727415	0.118266	0.646976	0.195712	31.045901	-80.942853	-56.782494
00522		-0.727429	0.118064	0.647044	0.195555	31.096566	-80.943405	-56.803269
00523		-0.727475	0.117886	0.647052	0.195466	31.126883	-80.936214	-56.811458
00524		-0.727498	0.117691	0.647087	0.195379	31.182620	-80.930791	-56.843854
00525		-0.727477	0.117563	0.647141	0.195355	31.254106	-80.929297	-56.902708
00526		-0.727459	0.117444	0.647182	0.195360	31.325081	-80.925686	-56.964221
00527		-0.727466	0.117347	0.647182	0.195392	31.372770	-80.918038	-57.006627
00528		-0.727448	0.117256	0.647216	0.195400	31.431332	-80.915410	-57.058252
00529		-0.727441	0.117148	0.647242	0.195406	31.488784	-80.910931	-57.107302
00530		-0.727426	0.117033	0.647287	0.195383	31.549625	-80.909088	-57.156730
00531		-0.727401	0.116935	0.647327	0.195403	31.619175	-80.906189	-57.219785
00532		-0.727364	0.116812	0.647383	0.195428	31.710721	-80.903097	-57.303216
00533		-0.727347	0.116679	0.647430	0.195414	31.782758	-80.900035	-57.363109
00534		-0.727337	0.116481	0.647486	0.195382	31.876784	-80.894438	-57.438045
00535		-0.727333	0.116283	0.647539	0.195342	31.964301	-80.888740	-57.505760
00536		-0.727306	0.116098	0.647611	0.195313	32.065185	-80.885448	-57.588937
00537		-0.727270	0.115934	0.647680	0.195317	32.169947	-80.881882	-57.680419
00538		-0.727211	0.115834	0.647754	0.195349	32.268638	-80.881924	-57.773446
00539		-0.727143	0.115782	0.647819	0.195417	32.359023	-80.882706	-57.865124
00540		-0.727094	0.115777	0.647842	0.195526	32.421505	-80.880259	-57.936287
00541		-0.727083	0.115745	0.647828	0.195635	32.467560	-80.871964	-57.988918
00542		-0.727056	0.115690	0.647853	0.195682	32.523573	-80.868969	-58.044344
00543		-0.727022	0.115612	0.647887	0.195742	32.598448	-80.864998	-58.117826
00544		-0.727002	0.115510	0.647921	0.195764	32.665374	-80.860909	-58.178120
00545		-0.726971	0.115398	0.647986	0.195733	32.735280	-80.861583	-58.236101
00546		-0.726937	0.115315	0.648036	0.195738	32.800366	-80.861281	-58.294657
00547		-0.726910	0.115268	0.648075	0.195741	32.843658	-80.862213	-58.334288
00548		-0.726887	0.115184	0.648114	0.195745	32.901116	-80.860573	-58.385156
00549		-0.726861	0.115121	0.648159	0.195731	32.947634	-80.861774	-58.425228
00550		-0.726836	0.115058	0.648205	0.195709	32.991442	-80.863402	-58.461892
00551		-0.726849	0.114985	0.648210	0.195687	33.010370	-80.860003	-58.472995
00552		-0.726861	0.114946	0.648202	0.195690	33.020009	-80.856426	-58.479630
00553		-0.726874	0.114976	0.648167	0.195741	33.006226	-80.852487	-58.472694
00554		-0.726879	0.115043	0.648124	0.195824	32.987678	-80.848798	-58.466704
00555		-0.726891	0.115119	0.648059	0.195951	32.969839	-80.841480	-58.465954
00556		-0.726885	0.115205	0.648025	0.196035	32.951099	-80.839990	-58.461360
00557		-0.726879	0.115226	0.648021	0.196059	32.951527	-80.839894	-58.465598
00558		-0.726890	0.115164	0.648033	0.196016	32.962793	-80.838885	-58.468056
00559		-0.726923	0.115037	0.648053	0.195903	32.973432	-80.837319	-58.458722
00560		-0.726941	0.114902	0.648094	0.195779	32.996349	-80.837963	-58.460078
00561		-0.726966	0.114785	0.648114	0.195687	33.011862	-80.836288	-58.458207
00562		-0.726987	0.114715	0.648114	0.195646	33.019341	-80.833362	-58.456466
00563		-0.727011	0.114698	0.648093	0.195637	33.006789	-80.830356	-58.441765
00564		-0.727035	0.114653	0.648076	0.195632	33.008486	-80.825667	-58.439445
00565		-0.727029	0.114633	0.648083	0.195644	33.024447	-80.824560	-58.454771
00566		-0.727036	0.114610	0.648095	0.195591	33.018486	-80.826600	-58.442381
00567		-0.727049	0.114586	0.648103	0.195528	33.006767	-80.828583	-58.423438
00568		-0.727070	0.114562	0.648106	0.195458	32.988103	-80.830315	-58.396851
00569		-0.727102	0.114586	0.648089	0.195377	32.935478	-80.833569	-58.339527
00570		-0.727117	0.114600	0.648090	0.195313	32.904906	-80.837240	-58.304656
00571		-0.727112	0.114654	0.648110	0.195231	32.866937	-80.846639	-58.264193
00572		-0.727113	0.114656	0.648136	0.195140	32.846592	-80.853409	-58.236324
00573		-0.727123	0.114687	0.648141	0.195068	32.809608	-80.859161	-58.195789
00574		-0.727125	0.114695	0.648152	0.195024	32.796161	-80.862646	-58.179256
00575		-0.727118	0.114717	0.648162	0.194999	32.785625	-80.866392	-58.168411
00576		-0.727100	0.114761	0.648178	0.194989	32.777176	-80.871401	-58.162711
00577		-0.727079	0.114786	0.648210	0.194947	32.773297	-80.878287	-58.157356
00578		-0.727077	0.114793	0.648231	0.194881	32.758079	-80.883827	-58.137030
00579		-0.727081	0.114803	0.648261	0.194762	32.726176	-80.892828	-58.095875
00580		-0.727087	0.114759	0.648307	0.194611	32.710425	-80.901244	-58.063740
00581		-0.727106	0.114724	0.648343	0.194438	32.675950	-80.910207	-58.011780
00582		-0.727111	0.114697	0.648383	0.194304	32.657232	-80.918394	-57.979512
00583		-0.727122	0.114684	0.648400	0.194212	32.635166	-80.923393	-57.948615
00584		-0.727123	0.114723	0.648402	0.194178	32.609087	-80.927648	-57.922960
00585		-0.727119	0.114778	0.648394	0.194186	32.588081	-80.930115	-57.907135
00586		-0.727115	0.114837	0.648382	0.194210	32.568873	-80.931663	-57.894708
00587		-0.727107	0.114876	0.648386	0.194201	32.554937	-80.935113	-57.883248
00588		-0.727113	0.114850	0.648397	0.194158	32.553504	-80.936428	-57.876048
00589		-0.727163	0.114764	0.648390	0.194048	32.532069	-80.934526	-57.838294
00590		-0.727207	0.114626	0.648412	0.193889	32.528981	-80.934476	-57.810554
00591		-0.727255	0.114501	0.648427	0.193732	32.517082	-80.934373	-57.775174
00592		-0.727300	0.114421	0.648424	0.193621	32.496357	-80.933376	-57.738529
00593		-0.727340	0.114416	0.648395	0.193571	32.457396	-80.932042	-57.695016
00594		-0.727358	0.114458	0.648364	0.193584	32.426918	-80.930895	-57.669104
00595		-0.727393	0.114532	0.648293	0.193644	32.377897	-80.925601	-57.631330
00596		-0.727423	0.114571	0.648249	0.193656	32.338923	-80.922928	-57.596671
00597		-0.727472	0.114547	0.648209	0.193623	32.305625	-80.918378	-57.558676
00598		-0.727524	0.114455	0.648188	0.193546	32.291865	-80.913232	-57.531000
00599		-0.727589	0.114329	0.648168	0.193446	32.280149	-80.906913	-57.500521
00600		-0.727620	0.114255	0.648170	0.193364	32.273075	-80.905665	-57.480552
00601		-0.727671	0.114259	0.648127	0.193317	32.222638	-80.903134	-57.426518
00602		-0.727732	0.114301	0.648058	0.193292	32.150547	-80.899568	-57.355876
00603		-0.727817	0.114330	0.647974	0.193236	32.060329	-80.894537	-57.263531
00604		-0.727881	0.114301	0.647927	0.193170	32.010892	-80.890248	-57.206222
00605		-0.727952	0.114238	0.647886	0.193079	31.967294	-80.885411	-57.149892
00606		-0.727991	0.114160	0.647887	0.192974	31.950846	-80.884742	-57.118215
00607		-0.728041	0.114057	0.647882	0.192864	31.937877	-80.882036	-57.087546
00608		-0.728094	0.113980	0.647860	0.192781	31.915744	-80.877957	-57.052162
00609		-0.728141	0.113900	0.647846	0.192701	31.900413	-80.874429	-57.023586
00610		-0.728203	0.113794	0.647830	0.192581	31.876824	-80.870722	-56.981304
00611		-0.728282	0.113684	0.647800	0.192447	31.839437	-80.865752	-56.923594
00612		-0.728357	0.113564	0.647793	0.192260	31.798924	-80.864722	-56.857573
00613		-0.728450	0.113420	0.647778	0.192042	31.748768	-80.862691	-56.777262
00614		-0.728534	0.113297	0.647771	0.191821	31.694905	-80.862965	-56.694819
00615		-0.728609	0.113240	0.647751	0.191636	31.624997	-80.864666	-56.604721
00616		-0.728701	0.113200	0.647694	0.191500	31.543880	-80.861416	-56.509031
00617		-0.728781	0.113210	0.647621	0.191439	31.466012	-80.856432	-56.426895
00618		-0.728851	0.113253	0.647536	0.191436	31.392521	-80.849962	-56.356892
00619		-0.728940	0.113289	0.647425	0.191451	31.312440	-80.839409	-56.281226
00620		-0.729004	0.113296	0.647354	0.191441	31.259249	-80.832460	-56.227992
00621		-0.729066	0.113237	0.647314	0.191374	31.225612	-80.826927	-56.183938
00622		-0.729097	0.113164	0.647316	0.191292	31.218768	-80.825679	-56.164182
00623		-0.729155	0.113101	0.647301	0.191161	31.176308	-80.825155	-56.105604
00624		-0.729216	0.113018	0.647290	0.191015	31.137815	-80.824578	-56.048057
00625		-0.729287	0.112957	0.647267	0.190857	31.077990	-80.824369	-55.970003
00626		-0.729340	0.112903	0.647254	0.190732	31.036298	-80.824501	-55.913377
00627		-0.729390	0.112869	0.647219	0.190678	31.002781	-80.820572	-55.872659
00628		-0.729413	0.112867	0.647191	0.190687	30.989076	-80.816922	-55.859609
00629		-0.729427	0.112897	0.647155	0.190738	30.976429	-80.812894	-55.853799
00630		-0.729467	0.112927	0.647086	0.190803	30.947536	-80.804438	-55.832908
00631		-0.729507	0.112976	0.647014	0.190867	30.909044	-80.796996	-55.803920
00632		-0.729544	0.113000	0.646942	0.190953	30.889347	-80.787076	-55.793551
00633		-0.729562	0.113005	0.646905	0.191007	30.885681	-80.781118	-55.794981
00634		-0.729575	0.112989	0.646893	0.191005	30.882768	-80.778794	-55.790621
00635		-0.729624	0.112905	0.646868	0.190952	30.874249	-80.772702	-55.770739
00636		-0.729661	0.112831	0.646863	0.190870	30.863533	-80.770733	-55.747138
00637		-0.729711	0.112725	0.646860	0.190753	30.850604	-80.768204	-55.715682
00638		-0.729737	0.112643	0.646870	0.190668	30.850783	-80.767385	-55.701947
00639		-0.729772	0.112541	0.646871	0.190592	30.855954	-80.764014	-55.692374
00640		-0.729819	0.112497	0.646831	0.190576	30.838615	-80.757220	-55.670178
00641		-0.729858	0.112499	0.646770	0.190630	30.820384	-80.748366	-55.656728
00642		-0.729869	0.112524	0.646728	0.190715	30.819636	-80.741936	-55.665305
00643		-0.729865	0.112572	0.646690	0.190834	30.826851	-80.736015	-55.686482
00644		-0.729895	0.112608	0.646617	0.190946	30.813056	-80.725671	-55.685137
00645		-0.729949	0.112610	0.646533	0.191022	30.789512	-80.713373	-55.668369
00646		-0.729990	0.112577	0.646479	0.191066	30.784134	-80.703423	-55.664085
00647		-0.730017	0.112555	0.646447	0.191083	30.778731	-80.697819	-55.658410
00648		-0.730039	0.112473	0.646451	0.191032	30.789230	-80.695002	-55.657871
00649		-0.730077	0.112361	0.646446	0.190969	30.799808	-80.689673	-55.653909
00650		-0.730106	0.112235	0.646457	0.190898	30.821771	-80.685534	-55.659587
00651		-0.730131	0.112097	0.646467	0.190849	30.856781	-80.679697	-55.679109
00652		-0.730161	0.111982	0.646461	0.190821	30.882057	-80.672743	-55.692616
00653		-0.730169	0.111922	0.646456	0.190843	30.908146	-80.667387	-55.715616
00654		-0.730204	0.111866	0.646412	0.190890	30.919036	-80.656968	-55.725938
00655		-0.730223	0.111818	0.646390	0.190921	30.934345	-80.650129	-55.739949
00656		-0.730230	0.111778	0.646390	0.190917	30.946822	-80.647663	-55.748807
00657		-0.730238	0.111713	0.646400	0.190892	30.965430	-80.645575	-55.759946
00658		-0.730252	0.111609	0.646426	0.190811	30.985981	-80.645071	-55.765087
00659		-0.730286	0.111472	0.646451	0.190678	30.995307	-80.644292	-55.751956
00660		-0.730290	0.111329	0.646499	0.190583	31.037761	-80.644217	-55.774639
00661		-0.730306	0.111210	0.646521	0.190517	31.066540	-80.641541	-55.788084
00662		-0.730304	0.111142	0.646558	0.190436	31.081206	-80.644570	-55.790308
00663		-0.730317	0.111110	0.646552	0.190427	31.084960	-80.642176	-55.790685
00664		-0.730320	0.111103	0.646551	0.190423	31.084657	-80.641817	-55.789521
00665		-0.730314	0.111114	0.646549	0.190445	31.088929	-80.641484	-55.796494
00666		-0.730292	0.111131	0.646565	0.190465	31.100990	-80.643497	-55.811602
00667		-0.730274	0.111125	0.646592	0.190447	31.113714	-80.646902	-55.822254
00668		-0.730238	0.111076	0.646647	0.190428	31.158640	-80.650542	-55.861410
00669		-0.730225	0.110978	0.646692	0.190380	31.202536	-80.651167	-55.893149
00670		-0.730196	0.110865	0.646756	0.190339	31.266636	-80.652590	-55.944514
00671		-0.730179	0.110721	0.646822	0.190265	31.328827	-80.653530	-55.988510
00672		-0.730165	0.110599	0.646881	0.190188	31.378823	-80.655312	-56.021890
00673		-0.730144	0.110500	0.646943	0.190117	31.424577	-80.658633	-56.053418
00674		-0.730098	0.110416	0.647021	0.190075	31.487532	-80.663532	-56.105873
00675		-0.730058	0.110373	0.647083	0.190045	31.530514	-80.668867	-56.142653
00676		-0.730017	0.110351	0.647123	0.190080	31.578256	-80.670344	-56.191448
00677		-0.729973	0.110323	0.647161	0.190133	31.634809	-80.670569	-56.250074
00678		-0.729922	0.110327	0.647192	0.190221	31.689170	-80.670564	-56.312135
00679		-0.729872	0.110323	0.647229	0.190288	31.742094	-80.671687	-56.370270
00680		-0.729854	0.110252	0.647254	0.190318	31.795048	-80.668473	-56.419823
00681		-0.729850	0.110142	0.647286	0.190283	31.840524	-80.666343	-56.453267
00682		-0.729852	0.109977	0.647337	0.190198	31.896237	-80.664705	-56.488203
00683		-0.729864	0.109785	0.647385	0.190102	31.955015	-80.661312	-56.523111
00684		-0.729848	0.109644	0.647434	0.190076	32.025236	-80.658582	-56.579494
00685		-0.729810	0.109605	0.647469	0.190126	32.081859	-80.657787	-56.636999
00686		-0.729776	0.109671	0.647451	0.190280	32.109382	-80.653667	-56.682888
00687		-0.729764	0.109808	0.647378	0.190495	32.101279	-80.645689	-56.704316
00688		-0.729772	0.109911	0.647296	0.190685	32.088911	-80.635522	-56.716453
00689		-0.729796	0.109931	0.647235	0.190789	32.084139	-80.625770	-56.722181
00690		-0.729810	0.109844	0.647226	0.190815	32.118881	-80.618069	-56.751989
00691		-0.729812	0.109692	0.647264	0.190767	32.175658	-80.614245	-56.792207
00692		-0.729823	0.109482	0.647314	0.190673	32.242993	-80.609847	-56.834358
00693		-0.729836	0.109267	0.647368	0.190565	32.308602	-80.606202	-56.873038
00694		-0.729838	0.109020	0.647442	0.190447	32.393782	-80.602921	-56.927904
00695		-0.729842	0.108771	0.647506	0.190355	32.483900	-80.597438	-56.989789
00696		-0.729847	0.108523	0.647567	0.190270	32.574644	-80.591314	-57.052952
00697		-0.729866	0.108288	0.647607	0.190194	32.650341	-80.583383	-57.102960
00698		-0.729893	0.108064	0.647638	0.190113	32.714564	-80.575454	-57.141876
00699		-0.729886	0.107898	0.647694	0.190048	32.781335	-80.573254	-57.189470
00700		-0.729896	0.107773	0.647719	0.189993	32.818201	-80.570064	-57.211434
00701		-0.729912	0.107694	0.647729	0.189941	32.831049	-80.568250	-57.213400
00702		-0.729931	0.107631	0.647722	0.189929	32.842701	-80.563754	-57.218863
00703		-0.729945	0.107582	0.647722	0.189903	32.849054	-80.561625	-57.219063
00704		-0.729966	0.107480	0.647727	0.189862	32.870826	-80.557258	-57.229046
00705		-0.730006	0.107314	0.647739	0.189759	32.893813	-80.551989	-57.229714
00706		-0.730031	0.107110	0.647777	0.189649	32.944129	-80.547239	-57.254027
00707		-0.730027	0.106944	0.647837	0.189551	33.000915	-80.547092	-57.288855
00708		-0.730001	0.106830	0.647905	0.189487	33.058659	-80.549560	-57.331779
00709		-0.729963	0.106789	0.647956	0.189480	33.103326	-80.552713	-57.372402
00710		-0.729935	0.106769	0.647984	0.189505	33.138291	-80.553327	-57.407716
00711		-0.729920	0.106721	0.648013	0.189490	33.167710	-80.553927	-57.431938
00712		-0.729913	0.106652	0.648042	0.189454	33.196197	-80.554096	-57.451698
00713		-0.729926	0.106524	0.648075	0.189368	33.226685	-80.552793	-57.464436
00714		-0.729910	0.106370	0.648154	0.189246	33.282355	-80.556383	-57.497058
00715		-0.729881	0.106223	0.648245	0.189125	33.344748	-80.561771	-57.537059
00716		-0.729864	0.106092	0.648319	0.189011	33.392758	-80.565957	-57.564683
00717		-0.729829	0.106039	0.648378	0.188977	33.436155	-80.570140	-57.600701
00718		-0.729783	0.105996	0.648428	0.189005	33.494716	-80.571522	-57.658023
00719		-0.729744	0.105980	0.648456	0.189068	33.543482	-80.570738	-57.710731
00720		-0.729711	0.105964	0.648475	0.189139	33.589347	-80.568644	-57.761152
00721		-0.729686	0.105913	0.648503	0.189168	33.636687	-80.567023	-57.806714
00722		-0.729664	0.105816	0.648545	0.189161	33.694640	-80.565401	-57.856041
00723		-0.729637	0.105706	0.648601	0.189137	33.758681	-80.565072	-57.908933
00724		-0.729606	0.105616	0.648670	0.189069	33.808996	-80.569438	-57.946033
00725		-0.729582	0.105560	0.648717	0.189035	33.845003	-80.572183	-57.974501
00726		-0.729533	0.105555	0.648767	0.189052	33.887256	-80.576487	-58.017681
00727		-0.729507	0.105578	0.648776	0.189111	33.908606	-80.576314	-58.045868
00728		-0.729486	0.105598	0.648773	0.189189	33.930927	-80.574035	-58.076306
00729		-0.729468	0.105622	0.648765	0.189271	33.949818	-80.571145	-58.104097
00730		-0.729438	0.105614	0.648785	0.189327	33.987436	-80.570272	-58.145722
00731		-0.729409	0.105544	0.648827	0.189333	34.041242	-80.569846	-58.194216
00732		-0.729386	0.105427	0.648887	0.189280	34.099834	-80.570767	-58.238718
00733		-0.729368	0.105334	0.648939	0.189222	34.142699	-80.572573	-58.268963
00734		-0.729350	0.105256	0.648983	0.189183	34.182876	-80.573823	-58.299350
00735		-0.729356	0.105193	0.649004	0.189124	34.194847	-80.574403	-58.301159
00736		-0.729393	0.105136	0.648992	0.189058	34.179444	-80.572192	-58.275625
00737		-0.729425	0.105091	0.648975	0.189012	34.165227	-80.569544	-58.253902
00738		-0.729445	0.105054	0.648979	0.188946	34.154282	-80.570242	-58.234348
00739		-0.729455	0.105036	0.648980	0.188914	34.148109	-80.570600	-58.224047
00740		-0.729487	0.105048	0.648944	0.188904	34.116469	-80.568018	-58.192617
00741		-0.729488	0.105091	0.648930	0.188926	34.101130	-80.568464	-58.182680
00742		-0.729475	0.105142	0.648919	0.188985	34.099779	-80.568088	-58.190493
00743		-0.729490	0.105186	0.648882	0.189030	34.078173	-80.565127	-58.176273
00744		-0.729526	0.105188	0.648840	0.189034	34.050915	-80.560547	-58.149600
00745		-0.729577	0.105120	0.648814	0.188964	34.028110	-80.556364	-58.115434
00746		-0.729611	0.105028	0.648822	0.188858	34.022936	-80.555768	-58.093859
00747		-0.729652	0.104935	0.648833	0.188711	34.003619	-80.557138	-58.054529
00748		-0.729678	0.104830	0.648861	0.188573	34.003358	-80.559225	-58.034007
00749		-0.729713	0.104764	0.648869	0.188446	33.980976	-80.561250	-57.995585
00750		-0.729720	0.104708	0.648886	0.188391	33.989478	-80.561765	-57.994852
00751		-0.729740	0.104645	0.648884	0.188356	33.995178	-80.558938	-57.992374
00752		-0.729770	0.104549	0.648884	0.188298	34.004054	-80.554999	-57.988518
00753		-0.729805	0.104459	0.648868	0.188265	34.010349	-80.548798	-57.984726
00754		-0.729832	0.104381	0.648861	0.188225	34.016003	-80.544631	-57.980688
00755		-0.729882	0.104275	0.648856	0.188108	34.002429	-80.542240	-57.948610
00756		-0.729916	0.104138	0.648876	0.187981	34.011635	-80.540826	-57.935898
00757		-0.729959	0.104050	0.648872	0.187881	33.998782	-80.538841	-57.907402
00758		-0.729986	0.103943	0.648889	0.187776	34.004684	-80.538170	-57.895768
00759		-0.730033	0.103857	0.648876	0.187682	33.988410	-80.535217	-57.864605
00760		-0.730089	0.103822	0.648828	0.187652	33.956231	-80.529084	-57.827048
00761		-0.730136	0.103804	0.648783	0.187632	33.924425	-80.524012	-57.792219
00762		-0.730178	0.103799	0.648740	0.187623	33.893602	-80.519335	-57.760276
00763		-0.730217	0.103748	0.648705	0.187620	33.886060	-80.512373	-57.748401
00764		-0.730259	0.103687	0.648674	0.187599	33.877458	-80.505940	-57.733079
00765		-0.730299	0.103571	0.648672	0.187512	33.881023	-80.501879	-57.719889
00766		-0.730368	0.103430	0.648644	0.187419	33.873534	-80.493558	-57.693020
00767		-0.730405	0.103350	0.648628	0.187372	33.871397	-80.488651	-57.680520
00768		-0.730426	0.103317	0.648617	0.187348	33.865637	-80.486259	-57.670009
00769		-0.730473	0.103360	0.648557	0.187348	33.811655	-80.482656	-57.619677
00770		-0.730521	0.103457	0.648479	0.187379	33.739524	-80.479346	-57.558183
00771		-0.730581	0.103538	0.648399	0.187375	33.658459	-80.476355	-57.483664
00772		-0.730616	0.103557	0.648365	0.187345	33.618369	-80.475275	-57.442615
00773		-0.730674	0.103502	0.648331	0.187268	33.584071	-80.471357	-57.397436
00774		-0.730722	0.103377	0.648326	0.187168	33.583294	-80.466809	-57.378050
00775		-0.730761	0.103268	0.648320	0.187095	33.587695	-80.462208	-57.367365
00776		-0.730772	0.103169	0.648340	0.187037	33.611370	-80.460307	-57.378041
00777		-0.730794	0.103069	0.648349	0.186978	33.627589	-80.457276	-57.381082
00778		-0.730821	0.102925	0.648374	0.186865	33.648425	-80.455299	-57.380637
00779		-0.730864	0.102732	0.648396	0.186725	33.672616	-80.451096	-57.377239
00780		-0.730903	0.102510	0.648446	0.186525	33.701205	-80.450431	-57.370804
00781		-0.730933	0.102273	0.648518	0.186284	33.734792	-80.453038	-57.364631
00782		-0.730969	0.102101	0.648564	0.186078	33.742228	-80.455541	-57.340604
00783		-0.730979	0.102034	0.648607	0.185922	33.732872	-80.462594	-57.312575
00784		-0.730986	0.102044	0.648620	0.185843	33.707439	-80.468083	-57.281361
00785		-0.730987	0.102109	0.648616	0.185822	33.674012	-80.472817	-57.251483
00786		-0.730989	0.102162	0.648612	0.185797	33.643941	-80.476956	-57.223707
00787		-0.731002	0.102149	0.648616	0.185738	33.628430	-80.479103	-57.202134
00788		-0.731020	0.102084	0.648639	0.185625	33.621111	-80.482192	-57.180046
00789		-0.731027	0.101973	0.648689	0.185483	33.635816	-80.486437	-57.173574
00790		-0.731036	0.101855	0.648736	0.185350	33.654399	-80.489496	-57.171259
00791		-0.731057	0.101784	0.648753	0.185243	33.648230	-80.491295	-57.150337
00792		-0.731055	0.101763	0.648775	0.185188	33.647932	-80.494689	-57.143653
00793		-0.731046	0.101770	0.648800	0.185130	33.639365	-80.500399	-57.130740
00794		-0.731039	0.101775	0.648823	0.185071	33.630684	-80.505766	-57.117475
00795		-0.731038	0.101734	0.648856	0.184986	33.632594	-80.510330	-57.108846
00796		-0.731034	0.101648	0.648908	0.184863	33.647956	-80.515597	-57.106791
00797		-0.731007	0.101569	0.648986	0.184742	33.678200	-80.524013	-57.120238
00798		-0.730998	0.101471	0.649045	0.184626	33.705190	-80.528934	-57.129399
00799		-0.731006	0.101435	0.649062	0.184554	33.700392	-80.531556	-57.115566
00800		-0.731006	0.101400	0.649077	0.184518	33.708355	-80.532511	-57.117595
00801		-0.731003	0.101394	0.649085	0.184506	33.710651	-80.533434	-57.118432
00802		-0.730999	0.101373	0.649104	0.184468	33.715262	-80.535807	-57.118117
00803		-0.731004	0.101320	0.649122	0.184412	33.723194	-80.536629	-57.117011
00804		-0.731016	0.101265	0.649132	0.184358	33.727417	-80.536491	-57.112155
00805		-0.731013	0.101253	0.649140	0.184350	33.733835	-80.536902	-57.116835
00806		-0.730980	0.101245	0.649184	0.184332	33.758165	-80.541933	-57.138971
00807		-0.730973	0.101229	0.649189	0.184350	33.773960	-80.540520	-57.154967
00808		-0.730964	0.101236	0.649192	0.184371	33.782449	-80.540475	-57.165779
00809		-0.730952	0.101250	0.649195	0.184400	33.790735	-80.540496	-57.177682
00810		-0.730926	0.101260	0.649218	0.184417	33.808843	-80.542778	-57.197869
00811		-0.730927	0.101226	0.649222	0.184418	33.823893	-80.540950	-57.210262
00812		-0.730941	0.101182	0.649201	0.184458	33.840322	-80.534048	-57.226477
00813		-0.730925	0.101144	0.649224	0.184464	33.870676	-80.533812	-57.254139
00814		-0.730909	0.101100	0.649244	0.184480	33.904808	-80.532411	-57.286011
00815		-0.730911	0.101087	0.649247	0.184471	33.907487	-80.532117	-57.286871
00816		-0.730905	0.101010	0.649275	0.184437	33.938926	-80.531658	-57.309111
00817		-0.730892	0.100929	0.649316	0.184389	33.974151	-80.532795	-57.333594
00818		-0.730900	0.100860	0.649336	0.184323	33.985072	-80.533282	-57.333336
00819		-0.730925	0.100778	0.649347	0.184230	33.983650	-80.533092	-57.317359
00820		-0.730936	0.100679	0.649377	0.184137	34.000620	-80.533845	-57.318389
00821		-0.730948	0.100578	0.649402	0.184055	34.019004	-80.533514	-57.321542
00822		-0.730962	0.100504	0.649418	0.183982	34.025943	-80.533561	-57.316318
00823		-0.730961	0.100499	0.649428	0.183953	34.023398	-80.535526	-57.310929
00824		-0.730965	0.100515	0.649421	0.183956	34.014221	-80.535632	-57.303284
00825		-0.730983	0.100562	0.649388	0.183974	33.983605	-80.534437	-57.278107
00826		-0.730983	0.100609	0.649382	0.183970	33.962618	-80.537068	-57.260632
00827		-0.730995	0.100629	0.649377	0.183928	33.936109	-80.539680	-57.232236
00828		-0.731011	0.100640	0.649373	0.183872	33.907976	-80.542410	-57.200341
00829		-0.731033	0.100644	0.649357	0.183837	33.882201	-80.542590	-57.171954
00830		-0.731039	0.100682	0.649346	0.183835	33.861169	-80.543938	-57.153985
00831		-0.731034	0.100757	0.649330	0.183868	33.838374	-80.545761	-57.140011
00832		-0.731041	0.100829	0.649312	0.183867	33.801437	-80.548604	-57.108951
00833		-0.731046	0.100867	0.649307	0.183841	33.775590	-80.551615	-57.084074
00834		-0.731041	0.100884	0.649316	0.183823	33.768118	-80.554466	-57.076423
00835		-0.731047	0.100911	0.649313	0.183794	33.745996	-80.557232	-57.054159
00836		-0.731058	0.100983	0.649289	0.183794	33.705595	-80.559432	-57.019678
00837		-0.731102	0.101064	0.649229	0.183784	33.634804	-80.558712	-56.954844
00838		-0.731123	0.101143	0.649184	0.183819	33.592244	-80.557506	-56.921705
00839		-0.731135	0.101201	0.649155	0.183841	33.561572	-80.557223	-56.897665
00840		-0.731144	0.101236	0.649137	0.183851	33.541250	-80.557128	-56.881120
00841		-0.731178	0.101264	0.649089	0.183868	33.507375	-80.553028	-56.851046
00842		-0.731183	0.101301	0.649063	0.183918	33.497331	-80.550545	-56.848237
00843		-0.731170	0.101325	0.649061	0.183967	33.506795	-80.549772	-56.863814
00844		-0.731185	0.101339	0.649026	0.184025	33.501793	-80.544307	-56.864840
00845		-0.731209	0.101326	0.648989	0.184063	33.496528	-80.537869	-56.861779
00846		-0.731233	0.101299	0.648963	0.184074	33.493152	-80.532843	-56.857135
00847		-0.731236	0.101324	0.648941	0.184129	33.491856	-80.529684	-56.862539
00848		-0.731228	0.101332	0.648931	0.184190	33.505905	-80.526483	-56.882401
00849		-0.731233	0.101386	0.648890	0.184288	33.499463	-80.521255	-56.888682
00850		-0.731225	0.101502	0.648841	0.184427	33.482557	-80.517585	-56.892984
00851		-0.731210	0.101651	0.648790	0.184581	33.458790	-80.515327	-56.894412
00852		-0.731186	0.101760	0.648761	0.184716	33.456053	-80.513461	-56.912007
00853		-0.731195	0.101760	0.648740	0.184758	33.458147	-80.509383	-56.917664
00854		-0.731180	0.101751	0.648754	0.184774	33.476637	-80.509561	-56.936734
00855		-0.731157	0.101728	0.648779	0.184790	33.507260	-80.510041	-56.966690
00856		-0.731139	0.101720	0.648801	0.184789	33.524160	-80.511918	-56.982835
00857		-0.731142	0.101710	0.648804	0.184771	33.522319	-80.512405	-56.978624
00858		-0.731151	0.101686	0.648799	0.184765	33.525063	-80.510552	-56.978987
00859		-0.731167	0.101676	0.648777	0.184787	33.522280	-80.506570	-56.977187
00860		-0.731155	0.101637	0.648788	0.184815	33.553350	-80.503957	-57.007520
00861		-0.731162	0.101629	0.648780	0.184820	33.553075	-80.502428	-57.007009
00862		-0.731155	0.101675	0.648777	0.184831	33.540192	-80.504577	-56.998773
00863		-0.731137	0.101736	0.648788	0.184831	33.526589	-80.509836	-56.990082
00864		-0.731139	0.101774	0.648786	0.184812	33.504550	-80.512897	-56.969615
00865		-0.731156	0.101845	0.648746	0.184843	33.466928	-80.511873	-56.940491
00866		-0.731160	0.101945	0.648714	0.184885	33.428300	-80.513249	-56.913665
00867		-0.731154	0.102057	0.648687	0.184941	33.394997	-80.515229	-56.894189
00868		-0.731144	0.102091	0.648682	0.184982	33.396266	-80.515113	-56.901710
00869		-0.731141	0.102092	0.648689	0.184967	33.394365	-80.516547	-56.898633
00870		-0.731147	0.102074	0.648704	0.184901	33.384552	-80.519904	-56.881774
00871		-0.731177	0.102034	0.648697	0.184828	33.364801	-80.519700	-56.852669
00872		-0.731201	0.101969	0.648710	0.184723	33.354524	-80.521368	-56.828324
00873		-0.731204	0.101898	0.648745	0.184628	33.363712	-80.524521	-56.823567
00874		-0.731227	0.101850	0.648752	0.184536	33.349003	-80.526166	-56.797250
00875		-0.731275	0.101789	0.648719	0.184496	33.332205	-80.520301	-56.772142
00876		-0.731320	0.101739	0.648686	0.184466	33.315087	-80.514720	-56.748494
00877		-0.731343	0.101698	0.648668	0.184460	33.315034	-80.510352	-56.744620
00878		-0.731377	0.101634	0.648636	0.184469	33.319915	-80.502361	-56.745072
00879		-0.731425	0.101563	0.648606	0.184425	33.306926	-80.496255	-56.722661
00880		-0.731483	0.101448	0.648580	0.184350	33.299508	-80.489108	-56.699605
00881		-0.731543	0.101303	0.648571	0.184226	33.293921	-80.484012	-56.671746
00882		-0.731585	0.101152	0.648592	0.184066	33.296276	-80.483280	-56.648307
00883		-0.731633	0.100995	0.648612	0.183891	33.294816	-80.482680	-56.619282
00884		-0.731723	0.100810	0.648595	0.183693	33.269054	-80.477318	-56.561838
00885		-0.731795	0.100674	0.648574	0.183555	33.247502	-80.472063	-56.517582
00886		-0.731849	0.100586	0.648564	0.183422	33.219536	-80.470976	-56.471333
00887		-0.731914	0.100481	0.648539	0.183311	33.195400	-80.466095	-56.429295
00888		-0.731977	0.100407	0.648496	0.183251	33.169401	-80.459212	-56.392313
00889		-0.732013	0.100364	0.648469	0.183228	33.157225	-80.454445	-56.374769
00890		-0.732033	0.100358	0.648446	0.183228	33.144733	-80.451549	-56.361822
00891		-0.732058	0.100347	0.648423	0.183216	33.128671	-80.448909	-56.343894
00892		-0.732088	0.100304	0.648424	0.183120	33.106127	-80.450259	-56.309765
00893		-0.732127	0.100214	0.648429	0.182996	33.091619	-80.450194	-56.277500
00894		-0.732142	0.100119	0.648468	0.182850	33.092222	-80.454473	-56.257989
00895		-0.732159	0.100016	0.648500	0.182727	33.100111	-80.456522	-56.247058
00896		-0.732172	0.099894	0.648538	0.182603	33.117831	-80.458046	-56.244375
00897		-0.732199	0.099822	0.648548	0.182496	33.107626	-80.459103	-56.219354
00898		-0.732200	0.099800	0.648559	0.182470	33.111456	-80.459968	-56.219139
00899		-0.732191	0.099809	0.648568	0.182468	33.113901	-80.461567	-56.222158
00900		-0.732186	0.099795	0.648581	0.182447	33.118689	-80.462976	-56.224044
00901		-0.732204	0.099805	0.648556	0.182459	33.103742	-80.460476	-56.210919
00902		-0.732208	0.099806	0.648555	0.182446	33.097420	-80.460902	-56.203591
00903		-0.732169	0.099818	0.648604	0.182422	33.116352	-80.468079	-56.221380
00904		-0.732141	0.099790	0.648648	0.182393	33.142588	-80.472317	-56.242871
00905		-0.732123	0.099778	0.648678	0.182362	33.154452	-80.476172	-56.251036
00906		-0.732112	0.099777	0.648696	0.182346	33.159889	-80.478682	-56.255087
00907		-0.732104	0.099803	0.648702	0.182345	33.154462	-80.481014	-56.251628
00908		-0.732071	0.099829	0.648737	0.182339	33.166025	-80.486811	-56.264712
00909		-0.732068	0.099830	0.648743	0.182324	33.164020	-80.488228	-56.261536
00910		-0.732071	0.099828	0.648736	0.182343	33.167251	-80.486477	-56.266208
00911		-0.732062	0.099846	0.648742	0.182345	33.165971	-80.488309	-56.266614
00912		-0.732049	0.099828	0.648761	0.182341	33.182678	-80.489279	-56.281516
00913		-0.732057	0.099780	0.648766	0.182316	33.192476	-80.487835	-56.285246
00914		-0.732062	0.099710	0.648781	0.182283	33.213090	-80.486268	-56.297338
00915		-0.732051	0.099607	0.648831	0.182204	33.250027	-80.488334	-56.319102
00916		-0.732066	0.099505	0.648853	0.182122	33.267271	-80.487696	-56.321153
00917		-0.732090	0.099416	0.648864	0.182032	33.269820	-80.486989	-56.308875
00918		-0.732123	0.099358	0.648861	0.181943	33.252400	-80.486697	-56.279232
00919		-0.732157	0.099314	0.648847	0.181880	33.233495	-80.484967	-56.251448
00920		-0.732170	0.099316	0.648838	0.181859	33.219321	-80.485000	-56.235720
00921		-0.732193	0.099389	0.648790	0.181897	33.178667	-80.482919	-56.204310
00922		-0.732210	0.099496	0.648738	0.181955	33.130449	-80.481720	-56.169822
00923		-0.732231	0.099568	0.648688	0.182010	33.094792	-80.478600	-56.144791
00924		-0.732240	0.099537	0.648683	0.182007	33.101490	-80.476176	-56.148648
00925		-0.732255	0.099403	0.648720	0.181891	33.125456	-80.476498	-56.151843
00926		-0.732278	0.099220	0.648762	0.181747	33.159195	-80.475360	-56.158524
00927		-0.732290	0.099069	0.648800	0.181647	33.195987	-80.473914	-56.174533
00928		-0.732273	0.099034	0.648831	0.181626	33.219573	-80.475900	-56.193375
00929		-0.732270	0.099137	0.648796	0.181702	33.191860	-80.475569	-56.180507
00930		-0.732249	0.099377	0.648736	0.181870	33.136593	-80.477444	-56.159071
00931		-0.732213	0.099621	0.648688	0.182055	33.094215	-80.480076	-56.152219
00932		-0.732176	0.099772	0.648684	0.182135	33.071805	-80.486065	-56.148937
00933		-0.732150	0.099823	0.648701	0.182148	33.070203	-80.490735	-56.152609
00934		-0.732106	0.099778	0.648782	0.182060	33.103875	-80.500431	-56.175077
00935		-0.732070	0.099680	0.648865	0.181965	33.154095	-80.507115	-56.209161
00936		-0.732041	0.099574	0.648940	0.181875	33.203576	-80.512231	-56.242245
00937		-0.732014	0.099480	0.649007	0.181793	33.247384	-80.516945	-56.271413
00938		-0.731984	0.099437	0.649050	0.181786	33.287133	-80.519108	-56.306885
00939		-0.731968	0.099426	0.649067	0.181794	33.305762	-80.519913	-56.325328
00940		-0.731953	0.099453	0.649085	0.181777	33.301681	-80.524353	-56.321970
00941		-0.731921	0.099460	0.649133	0.181730	33.311741	-80.532110	-56.328600
00942		-0.731902	0.099455	0.649169	0.181679	33.316907	-80.537845	-56.329078
00943		-0.731911	0.099399	0.649206	0.181543	33.307444	-80.544061	-56.303490
00944		-0.731932	0.099321	0.649232	0.181407	33.297014	-80.547701	-56.275273
00945		-0.731966	0.099219	0.649247	0.181273	33.289137	-80.548384	-56.247785
00946		-0.732000	0.099149	0.649248	0.181169	33.273315	-80.548410	-56.217482
00947		-0.732048	0.099120	0.649221	0.181089	33.233942	-80.547014	-56.169078
00948		-0.732075	0.099073	0.649216	0.181023	33.221487	-80.546264	-56.147342
00949		-0.732101	0.099012	0.649209	0.180977	33.219040	-80.543476	-56.136084
00950		-0.732127	0.098994	0.649200	0.180913	33.194346	-80.544094	-56.104486
00951		-0.732204	0.098974	0.649141	0.180825	33.128322	-80.540104	-56.029578
00952		-0.732294	0.098947	0.649070	0.180731	33.053979	-80.534611	-55.945305
00953		-0.732374	0.098898	0.649023	0.180599	32.989275	-80.531954	-55.865621
00954		-0.732473	0.098836	0.648959	0.180465	32.916094	-80.526552	-55.776328
00955		-0.732585	0.098749	0.648897	0.180282	32.834061	-80.521898	-55.671972
00956		-0.732677	0.098629	0.648852	0.180130	32.786788	-80.515797	-55.602195
00957		-0.732783	0.098527	0.648784	0.180004	32.728475	-80.507048	-55.525133
00958		-0.732877	0.098468	0.648711	0.179914	32.666995	-80.498913	-55.451434
00959		-0.733000	0.098394	0.648604	0.179838	32.593825	-80.485623	-55.366107
00960		-0.733118	0.098337	0.648490	0.179801	32.525754	-80.470915	-55.290446
00961		-0.733228	0.098289	0.648385	0.179755	32.458165	-80.458201	-55.215302
00962		-0.733336	0.098228	0.648288	0.179701	32.395892	-80.445770	-55.143657
00963		-0.733444	0.098172	0.648197	0.179618	32.325825	-80.435556	-55.062249
00964		-0.733529	0.098111	0.648125	0.179563	32.279430	-80.426069	-55.006408
00965		-0.733619	0.098057	0.648050	0.179498	32.225326	-80.416991	-54.942594
00966		-0.733679	0.098034	0.648003	0.179433	32.178546	-80.413014	-54.888509
00967		-0.733748	0.097994	0.647952	0.179355	32.129922	-80.408058	-54.830243
00968		-0.733808	0.097982	0.647887	0.179355	32.092716	-80.399993	-54.792183
00969		-0.733847	0.097992	0.647836	0.179372	32.064535	-80.394250	-54.766321
00970		-0.733855	0.098011	0.647816	0.179404	32.057655	-80.391932	-54.763666
00971		-0.733860	0.098059	0.647793	0.179439	32.039860	-80.390953	-54.752860
00972		-0.733856	0.098086	0.647766	0.179535	32.051794	-80.385726	-54.775009
00973		-0.733852	0.098141	0.647740	0.179618	32.048548	-80.382929	-54.783254
00974		-0.733832	0.098205	0.647726	0.179715	32.055653	-80.381380	-54.803750
00975		-0.733815	0.098298	0.647701	0.179822	32.049130	-80.380172	-54.813884
00976		-0.733774	0.098398	0.647707	0.179915	32.054449	-80.383298	-54.835063
00977		-0.733745	0.098472	0.647712	0.179975	32.055367	-80.386118	-54.847076
00978		-0.733716	0.098538	0.647726	0.180004	32.052636	-80.390706	-54.852114
00979		-0.733697	0.098588	0.647737	0.180016	32.046922	-80.394643	-54.851599
00980		-0.733689	0.098620	0.647749	0.179990	32.033255	-80.399010	-54.838309
00981		-0.733696	0.098625	0.647740	0.179989	32.024866	-80.398426	-54.830249
00982		-0.733685	0.098638	0.647753	0.179979	32.024734	-80.401115	-54.830343
00983		-0.733662	0.098678	0.647761	0.180022	32.032901	-80.402810	-54.845352
00984		-0.733636	0.098720	0.647771	0.180071	32.044118	-80.404534	-54.864105
00985		-0.733636	0.098789	0.647749	0.180114	32.022343	-80.404723	-54.851628
00986		-0.733647	0.098860	0.647705	0.180185	31.998303	-80.401430	-54.839440
00987		-0.733665	0.098941	0.647663	0.180221	31.957598	-80.400396	-54.808348
00988		-0.733673	0.099004	0.647645	0.180217	31.923193	-80.402678	-54.778858
00989		-0.733701	0.099038	0.647616	0.180191	31.882856	-80.402578	-54.739181
00990		-0.733756	0.099017	0.647577	0.180115	31.835825	-80.400062	-54.684115
00991		-0.733802	0.098957	0.647554	0.180041	31.813553	-80.396810	-54.650857
00992		-0.733828	0.098899	0.647552	0.179980	31.808398	-80.395321	-54.635761
00993		-0.733860	0.098864	0.647532	0.179937	31.791222	-80.392691	-54.612201
00994		-0.733876	0.098884	0.647512	0.179931	31.769678	-80.391999	-54.591831
00995		-0.733895	0.098901	0.647487	0.179939	31.751019	-80.389901	-54.575278
00996		-0.733926	0.098930	0.647457	0.179902	31.708196	-80.389945	-54.531875
00997		-0.733970	0.098931	0.647417	0.179866	31.668651	-80.386971	-54.489402
00998		-0.734017	0.098897	0.647398	0.179761	31.627359	-80.386944	-54.436635
00999		-0.734050	0.098855	0.647394	0.179665	31.602113	-80.387829	-54.399844
01000		-0.734081	0.098821	0.647380	0.179606	31.581732	-80.386485	-54.371872
01001		-0.734104	0.098813	0.647368	0.179560	31.559440	-80.386475	-54.345044
01002		-0.734142	0.098847	0.647330	0.179524	31.509346	-80.385841	-54.294854
01003		-0.734183	0.098879	0.647290	0.179482	31.456981	-80.385214	-54.241606
01004		-0.734210	0.098874	0.647290	0.179375	31.416435	-80.389184	-54.191747
01005		-0.734257	0.098840	0.647292	0.179191	31.357695	-80.394778	-54.114777
01006		-0.734303	0.098793	0.647290	0.179037	31.312138	-80.397781	-54.052444
01007		-0.734316	0.098802	0.647302	0.178934	31.276235	-80.403895	-54.008692
01008		-0.734330	0.098861	0.647295	0.178871	31.225926	-80.409332	-53.957965
01009		-0.734355	0.098973	0.647255	0.178850	31.153260	-80.412812	-53.892744
01010		-0.734385	0.099089	0.647211	0.178823	31.074676	-80.416216	-53.821544
01011		-0.734400	0.099173	0.647194	0.178775	31.014890	-80.421511	-53.764655
01012		-0.734392	0.099168	0.647228	0.178690	31.004259	-80.428441	-53.746431
01013		-0.734399	0.099118	0.647262	0.178567	30.994097	-80.434008	-53.721827
01014		-0.734395	0.099054	0.647317	0.178416	30.991095	-80.442361	-53.700886
01015		-0.734389	0.099025	0.647355	0.178318	30.985474	-80.448831	-53.684595
01016		-0.734393	0.099026	0.647366	0.178265	30.970582	-80.452135	-53.665328
01017		-0.734385	0.098983	0.647403	0.178190	30.978705	-80.456675	-53.663591
01018		-0.734354	0.098891	0.647468	0.178130	31.028706	-80.460677	-53.700923
01019		-0.734332	0.098806	0.647527	0.178051	31.063653	-80.465129	-53.722273
01020		-0.734302	0.098704	0.647595	0.177989	31.117250	-80.468876	-53.762081
01021		-0.734268	0.098619	0.647649	0.177977	31.176677	-80.470087	-53.813499
01022		-0.734219	0.098632	0.647702	0.177976	31.204746	-80.477061	-53.842465
01023		-0.734190	0.098696	0.647710	0.178033	31.209280	-80.479679	-53.856978
01024		-0.734154	0.098815	0.647700	0.178153	31.208444	-80.481091	-53.875872
01025		-0.734108	0.098926	0.647698	0.178287	31.221506	-80.482517	-53.909324
01026		-0.734074	0.098971	0.647710	0.178360	31.241443	-80.483715	-53.939016
01027		-0.734035	0.098935	0.647744	0.178416	31.297762	-80.482971	-53.997020
01028		-0.733991	0.098906	0.647790	0.178448	31.349689	-80.485050	-54.049071
01029		-0.733939	0.098841	0.647841	0.178511	31.429558	-80.484125	-54.128830
01030		-0.733889	0.098821	0.647886	0.178566	31.486764	-80.485696	-54.188896
01031		-0.733834	0.098848	0.647923	0.178643	31.530949	-80.488391	-54.241698
01032		-0.733789	0.098886	0.647950	0.178709	31.560702	-80.491134	-54.279964
01033		-0.733752	0.098930	0.647966	0.178776	31.581626	-80.493045	-54.310103
01034		-0.733724	0.098972	0.647975	0.178838	31.596953	-80.494105	-54.334001
01035		-0.733699	0.099008	0.647982	0.178891	31.609902	-80.495071	-54.354337
01036		-0.733661	0.099025	0.648010	0.178937	31.640094	-80.497402	-54.389706
01037		-0.733635	0.099017	0.648027	0.178986	31.672883	-80.496770	-54.425975
01038		-0.733602	0.099014	0.648054	0.179026	31.706635	-80.497904	-54.462710
01039		-0.733563	0.099014	0.648077	0.179106	31.752615	-80.497197	-54.515374
01040		-0.733522	0.099034	0.648100	0.179175	31.787976	-80.498181	-54.558088
01041		-0.733472	0.099033	0.648137	0.179249	31.840560	-80.499188	-54.616695
01042		-0.733426	0.099035	0.648170	0.179317	31.888005	-80.500211	-54.669967
01043		-0.733416	0.099040	0.648178	0.179326	31.894876	-80.501067	-54.677965
01044		-0.733395	0.099021	0.648198	0.179350	31.923799	-80.501043	-54.707293
01045		-0.733365	0.099017	0.648237	0.179333	31.943001	-80.505874	-54.724642
01046		-0.733345	0.099009	0.648266	0.179313	31.956575	-80.509410	-54.735902
01047		-0.733323	0.099046	0.648276	0.179350	31.964417	-80.511365	-54.749756
01048		-0.733285	0.099111	0.648292	0.179408	31.974802	-80.515014	-54.770362
01049		-0.733254	0.099202	0.648292	0.179485	31.972977	-80.517508	-54.782405
01050		-0.733215	0.099322	0.648287	0.179593	31.970901	-80.520246	-54.799219
01051		-0.733189	0.099442	0.648270	0.179697	31.959361	-80.521650	-54.806177
01052		-0.733148	0.099559	0.648267	0.179812	31.961496	-80.524040	-54.827532
01053		-0.733108	0.099652	0.648281	0.179872	31.961615	-80.529002	-54.840313
01054		-0.733089	0.099672	0.648308	0.179840	31.959601	-80.534640	-54.837204
01055		-0.733071	0.099693	0.648329	0.179826	31.959956	-80.538926	-54.838047
01056		-0.733057	0.099720	0.648346	0.179809	31.954155	-80.543241	-54.833018
01057		-0.733030	0.099738	0.648370	0.179822	31.967993	-80.546501	-54.849349
01058		-0.732993	0.099789	0.648391	0.179868	31.982355	-80.550211	-54.871721
01059		-0.732965	0.099857	0.648400	0.179915	31.982469	-80.553543	-54.881271
01060		-0.732943	0.099908	0.648413	0.179928	31.978262	-80.557732	-54.882320
01061		-0.732934	0.099946	0.648414	0.179937	31.969096	-80.559982	-54.877075
01062		-0.732916	0.099940	0.648450	0.179885	31.973420	-80.565706	-54.876483
01063		-0.732901	0.099935	0.648482	0.179834	31.975227	-80.571098	-54.873517
01064		-0.732886	0.099956	0.648504	0.179804	31.969585	-80.576087	-54.867031
01065		-0.732875	0.100000	0.648515	0.179786	31.954029	-80.580820	-54.853561
01066		-0.732871	0.100074	0.648508	0.179785	31.923079	-80.584847	-54.828643
01067		-0.732878	0.100159	0.648491	0.179771	31.876785	-80.588995	-54.788088
01068		-0.732887	0.100256	0.648464	0.179776	31.827051	-80.592013	-54.746802
01069		-0.732904	0.100352	0.648431	0.179771	31.770204	-80.594636	-54.697468
01070		-0.732889	0.100437	0.648447	0.179729	31.733324	-80.603553	-54.664020
01071		-0.732887	0.100487	0.648456	0.179675	31.699220	-80.610035	-54.629451
01072		-0.732906	0.100532	0.648444	0.179618	31.652427	-80.613782	-54.581557
01073		-0.732920	0.100555	0.648439	0.179566	31.619943	-80.616890	-54.546672
01074		-0.732938	0.100571	0.648433	0.179504	31.586188	-80.619800	-54.509040
01075		-0.732952	0.100601	0.648428	0.179449	31.549346	-80.623377	-54.470081
01076		-0.732974	0.100630	0.648410	0.179410	31.512102	-80.624744	-54.432046
01077		-0.732993	0.100673	0.648394	0.179365	31.468311	-80.627525	-54.387996
01078		-0.733025	0.100691	0.648379	0.179276	31.416584	-80.630618	-54.330328
01079		-0.733070	0.100710	0.648349	0.179190	31.355538	-80.632022	-54.263707
01080		-0.733107	0.100718	0.648332	0.179094	31.303437	-80.634550	-54.204298
01081		-0.733140	0.100699	0.648338	0.178954	31.257148	-80.639565	-54.144658
01082		-0.733179	0.100666	0.648333	0.178827	31.214560	-80.642173	-54.088854
01083		-0.733205	0.100642	0.648330	0.178748	31.189059	-80.643450	-54.054668
01084		-0.733235	0.100702	0.648288	0.178743	31.138902	-80.642659	-54.009118
01085		-0.733290	0.100801	0.648194	0.178798	31.066024	-80.636215	-53.949137
01086		-0.733324	0.100975	0.648114	0.178856	30.975871	-80.635706	-53.878208
01087		-0.733359	0.101139	0.648032	0.178915	30.888793	-80.634419	-53.809677
01088		-0.733390	0.101244	0.647979	0.178920	30.819451	-80.634876	-53.749437
01089		-0.733418	0.101267	0.647967	0.178834	30.768789	-80.638396	-53.693458
01090		-0.733451	0.101274	0.647955	0.178737	30.719158	-80.641424	-53.636378
01091		-0.733477	0.101303	0.647937	0.178681	30.674851	-80.643417	-53.589785
01092		-0.733496	0.101324	0.647917	0.178662	30.647107	-80.643202	-53.562206
01093		-0.733531	0.101354	0.647870	0.178670	30.609541	-80.639473	-53.527879
01094		-0.733545	0.101373	0.647844	0.178697	30.597411	-80.636619	-53.519575
01095		-0.733554	0.101330	0.647835	0.178718	30.615975	-80.632012	-53.536384
01096		-0.733554	0.101198	0.647868	0.178674	30.666911	-80.629246	-53.572749
01097		-0.733554	0.101070	0.647898	0.178638	30.716743	-80.626008	-53.609055
01098		-0.733548	0.100963	0.647930	0.178608	30.763794	-80.624141	-53.644846
01099		-0.733536	0.100905	0.647953	0.178607	30.798573	-80.623076	-53.674609
01100		-0.733514	0.100914	0.647962	0.178661	30.823083	-80.622482	-53.704468
01101		-0.733495	0.101050	0.647922	0.178806	30.807462	-80.620805	-53.712146
01102		-0.733480	0.101187	0.647880	0.178939	30.785724	-80.619380	-53.712813
01103		-0.733486	0.101266	0.647849	0.178984	30.756239	-80.618937	-53.693652
01104		-0.733505	0.101252	0.647840	0.178943	30.739210	-80.618716	-53.672066
01105		-0.733505	0.101183	0.647867	0.178888	30.758170	-80.619676	-53.680691
01106		-0.733496	0.101107	0.647905	0.178830	30.786075	-80.621467	-53.697386
01107		-0.733486	0.101060	0.647941	0.178764	30.798991	-80.625305	-53.700993
01108		-0.733469	0.101103	0.647951	0.178776	30.794194	-80.628583	-53.700670
01109		-0.733452	0.101252	0.647925	0.178857	30.756695	-80.631804	-53.682177
01110		-0.733429	0.101441	0.647901	0.178929	30.702623	-80.638078	-53.649628
01111		-0.733460	0.101565	0.647850	0.178917	30.621208	-80.640618	-53.577529
01112		-0.733499	0.101659	0.647811	0.178845	30.532752	-80.644962	-53.490817
01113		-0.733523	0.101689	0.647820	0.178699	30.467665	-80.653603	-53.415925
01114		-0.733519	0.101686	0.647877	0.178507	30.426427	-80.667488	-53.358299
01115		-0.733513	0.101682	0.647937	0.178315	30.386548	-80.681748	-53.301927
01116		-0.733527	0.101704	0.647965	0.178148	30.327324	-80.692806	-53.230482
01117		-0.733555	0.101741	0.647978	0.177965	30.246220	-80.703812	-53.137115
01118		-0.733580	0.101782	0.647974	0.177850	30.181590	-80.710548	-53.066231
01119		-0.733588	0.101890	0.647969	0.177775	30.107504	-80.719505	-52.994714
01120		-0.733594	0.102028	0.647958	0.177712	30.023182	-80.729351	-52.916498
01121		-0.733600	0.102155	0.647944	0.177661	29.946548	-80.737691	-52.846034
01122		-0.733606	0.102277	0.647935	0.177602	29.871169	-80.746516	-52.775661
01123		-0.733613	0.102390	0.647926	0.177541	29.797608	-80.754890	-52.706328
01124		-0.733597	0.102452	0.647958	0.177455	29.758684	-80.765793	-52.665235
01125		-0.733587	0.102496	0.647986	0.177363	29.722149	-80.775316	-52.624558
01126		-0.733590	0.102501	0.648017	0.177235	29.685969	-80.784182	-52.578036
01127		-0.733586	0.102483	0.648055	0.177123	29.669341	-80.791791	-52.550496
01128		-0.733583	0.102469	0.648085	0.177036	29.656815	-80.797738	-52.529446
01129		-0.733574	0.102470	0.648110	0.176981	29.649171	-80.802823	-52.517234
01130		-0.733567	0.102502	0.648109	0.176994	29.642199	-80.804182	-52.514062
01131		-0.733544	0.102552	0.648115	0.177041	29.646573	-80.806139	-52.526382
01132		-0.733507	0.102587	0.648140	0.177083	29.666773	-80.809521	-52.552938
01133		-0.733512	0.102585	0.648129	0.177101	29.668324	-80.807459	-52.555894
01134		-0.733499	0.102615	0.648132	0.177129	29.670546	-80.808498	-52.562874
01135		-0.733505	0.102632	0.648131	0.177098	29.650228	-80.810737	-52.541331
01136		-0.733527	0.102600	0.648117	0.177073	29.643412	-80.808110	-52.529890
01137		-0.733538	0.102550	0.648127	0.177024	29.647693	-80.807995	-52.525891
01138		-0.733524	0.102507	0.648160	0.176987	29.668853	-80.810584	-52.540362
01139		-0.733519	0.102511	0.648162	0.176995	29.672301	-80.810739	-52.544843
01140		-0.733502	0.102516	0.648163	0.177060	29.698087	-80.808662	-52.576431
01141		-0.733493	0.102515	0.648159	0.177112	29.717874	-80.806169	-52.600537
01142		-0.733486	0.102531	0.648146	0.177182	29.732866	-80.802884	-52.622706
01143		-0.733467	0.102553	0.648151	0.177225	29.746121	-80.803248	-52.641309
01144		-0.733451	0.102580	0.648150	0.177281	29.758832	-80.802622	-52.660898
01145		-0.733428	0.102640	0.648153	0.177331	29.759305	-80.804766	-52.670433
01146		-0.733393	0.102694	0.648174	0.177367	29.766787	-80.809118	-52.685348
01147		-0.733387	0.102720	0.648182	0.177349	29.754604	-80.812350	-52.673770
01148		-0.733372	0.102750	0.648196	0.177342	29.749600	-80.816103	-52.670677
01149		-0.733357	0.102780	0.648206	0.177348	29.747106	-80.818858	-52.671073
01150		-0.733322	0.102817	0.648232	0.177379	29.762541	-80.822942	-52.692160
01151		-0.733291	0.102824	0.648253	0.177422	29.791266	-80.824167	-52.725005
01152		-0.733256	0.102802	0.648292	0.177442	29.832515	-80.826490	-52.765931
01153		-0.733226	0.102815	0.648312	0.177481	29.856763	-80.828160	-52.794583
01154		-0.733199	0.102828	0.648330	0.177520	29.879532	-80.829390	-52.821610
01155		-0.733173	0.102856	0.648351	0.177537	29.889166	-80.832936	-52.834849
01156		-0.733147	0.102889	0.648376	0.177531	29.890240	-80.838119	-52.838140
01157		-0.733132	0.102904	0.648403	0.177486	29.882821	-80.843898	-52.828185
01158		-0.733124	0.102869	0.648444	0.177390	29.881903	-80.850180	-52.816244
01159		-0.733147	0.102832	0.648454	0.177284	29.856684	-80.853140	-52.779117
01160		-0.733148	0.102803	0.648477	0.177206	29.850021	-80.857053	-52.763556
01161		-0.733152	0.102796	0.648494	0.177137	29.834221	-80.861159	-52.741363
01162		-0.733161	0.102839	0.648484	0.177109	29.799750	-80.863806	-52.708065
01163		-0.733161	0.102961	0.648462	0.177119	29.743926	-80.868458	-52.663075
01164		-0.733176	0.103093	0.648419	0.177138	29.675204	-80.870996	-52.606854
01165		-0.733214	0.103170	0.648378	0.177082	29.596989	-80.873246	-52.530387
01166		-0.733291	0.103183	0.648329	0.176938	29.500012	-80.873946	-52.422495
01167		-0.733365	0.103140	0.648300	0.176763	29.423780	-80.874677	-52.328186
01168		-0.733424	0.103064	0.648310	0.176526	29.358198	-80.880181	-52.236566
01169		-0.733487	0.102963	0.648324	0.176273	29.298253	-80.885165	-52.147179
01170		-0.733559	0.102882	0.648320	0.176033	29.224994	-80.888965	-52.047297
01171		-0.733632	0.102829	0.648294	0.175855	29.152514	-80.889425	-51.955628
01172		-0.733688	0.102767	0.648290	0.175671	29.095634	-80.892161	-51.878336
01173		-0.733744	0.102710	0.648295	0.175456	29.029306	-80.897357	-51.789311
01174		-0.733805	0.102603	0.648299	0.175247	28.983385	-80.899140	-51.717122
01175		-0.733873	0.102471	0.648298	0.175041	28.946013	-80.898831	-51.651737
01176		-0.733937	0.102388	0.648286	0.174864	28.894826	-80.899051	-51.579056
01177		-0.734014	0.102367	0.648241	0.174719	28.813231	-80.897982	-51.483730
01178		-0.734087	0.102360	0.648191	0.174606	28.736641	-80.895874	-51.397159
01179		-0.734150	0.102387	0.648142	0.174506	28.653078	-80.895553	-51.307521
01180		-0.734221	0.102354	0.648098	0.174390	28.588828	-80.892651	-51.231084
01181		-0.734316	0.102314	0.648040	0.174228	28.499822	-80.889528	-51.125319
01182		-0.734410	0.102166	0.648014	0.174016	28.450517	-80.885325	-51.046226
01183		-0.734503	0.102021	0.647982	0.173829	28.406659	-80.879703	-50.975008
01184		-0.734613	0.101902	0.647929	0.173629	28.335093	-80.873721	-50.877006
01185		-0.734715	0.101808	0.647868	0.173482	28.271234	-80.866215	-50.793384
01186		-0.734797	0.101756	0.647815	0.173361	28.208112	-80.861327	-50.715925
01187		-0.734895	0.101717	0.647748	0.173222	28.122684	-80.856110	-50.615851
01188		-0.734998	0.101650	0.647684	0.173061	28.041733	-80.850464	-50.516093
01189		-0.735108	0.101542	0.647623	0.172888	27.972389	-80.843124	-50.423590
01190		-0.735194	0.101397	0.647598	0.172699	27.933517	-80.838346	-50.357039
01191		-0.735273	0.101260	0.647587	0.172485	27.889012	-80.836543	-50.283530
01192		-0.735363	0.101119	0.647554	0.172305	27.847390	-80.830790	-50.215407
01193		-0.735460	0.101006	0.647503	0.172152	27.795495	-80.823588	-50.141609
01194		-0.735533	0.100912	0.647476	0.171997	27.749723	-80.820264	-50.075278
01195		-0.735586	0.100825	0.647470	0.171846	27.715768	-80.819845	-50.021516
01196		-0.735625	0.100736	0.647476	0.171708	27.695479	-80.820201	-49.982490
01197		-0.735641	0.100716	0.647499	0.171562	27.654823	-80.827148	-49.927952
01198		-0.735655	0.100736	0.647503	0.171477	27.612904	-80.831862	-49.880592
01199		-0.735651	0.100799	0.647505	0.171449	27.577269	-80.836831	-49.847830
01200		-0.735644	0.100879	0.647504	0.171434	27.539364	-80.842038	-49.815127
01201		-0.735649	0.100952	0.647487	0.171433	27.499710	-80.844436	-49.781482
01202		-0.735624	0.101012	0.647508	0.171427	27.485988	-80.850695	-49.772000
01203		-0.735575	0.101027	0.647557	0.171443	27.516406	-80.856846	-49.804970
01204		-0.735523	0.101049	0.647603	0.171478	27.550137	-80.862406	-49.843325
01205		-0.735459	0.101119	0.647645	0.171553	27.579905	-80.868849	-49.884953
01206		-0.735384	0.101220	0.647683	0.171673	27.614613	-80.875068	-49.937903
01207		-0.735314	0.101303	0.647727	0.171758	27.644464	-80.882196	-49.981643
01208		-0.735243	0.101406	0.647767	0.171849	27.667019	-80.889791	-50.020141
01209		-0.735191	0.101471	0.647798	0.171917	27.689676	-80.894916	-50.053657
01210		-0.735129	0.101504	0.647859	0.171934	27.720408	-80.903513	-50.088400
01211		-0.735080	0.101489	0.647915	0.171940	27.763191	-80.909135	-50.130392
01212		-0.735048	0.101472	0.647948	0.171964	27.800065	-80.911080	-50.167858
01213		-0.734995	0.101460	0.647998	0.172011	27.855535	-80.914584	-50.226100
01214		-0.734943	0.101471	0.648033	0.172089	27.906574	-80.916652	-50.284532
01215		-0.734898	0.101512	0.648053	0.172183	27.942678	-80.918006	-50.331828
01216		-0.734864	0.101550	0.648067	0.172255	27.966905	-80.919314	-50.365107
01217		-0.734842	0.101584	0.648079	0.172284	27.973754	-80.921637	-50.377131
01218		-0.734838	0.101583	0.648088	0.172264	27.970972	-80.923516	-50.372597
01219		-0.734846	0.101551	0.648103	0.172198	27.963872	-80.925692	-50.357340
01220		-0.734870	0.101524	0.648088	0.172164	27.950951	-80.923587	-50.339448
01221		-0.734908	0.101502	0.648058	0.172131	27.926985	-80.919847	-50.310940
01222		-0.734961	0.101447	0.648016	0.172096	27.907972	-80.912857	-50.284571
01223		-0.734992	0.101449	0.647984	0.172077	27.880061	-80.909974	-50.255260
01224		-0.735020	0.101445	0.647952	0.172083	27.864871	-80.905693	-50.240325
01225		-0.735050	0.101466	0.647914	0.172088	27.834970	-80.902217	-50.212621
01226		-0.735078	0.101468	0.647882	0.172085	27.814005	-80.898607	-50.191614
01227		-0.735112	0.101457	0.647842	0.172096	27.798757	-80.892917	-50.176499
01228		-0.735162	0.101405	0.647799	0.172075	27.784617	-80.885392	-50.156448
01229		-0.735190	0.101353	0.647778	0.172066	27.788030	-80.880056	-50.154796
01230		-0.735218	0.101303	0.647755	0.172066	27.793760	-80.874295	-50.156538
01231		-0.735252	0.101234	0.647718	0.172096	27.811691	-80.864708	-50.171389
01232		-0.735269	0.101215	0.647686	0.172159	27.826462	-80.857483	-50.189938
01233		-0.735265	0.101221	0.647660	0.172265	27.854216	-80.850950	-50.227039
01234		-0.735252	0.101213	0.647642	0.172394	27.901643	-80.843642	-50.284639
01235		-0.735243	0.101167	0.647622	0.172533	27.966851	-80.833460	-50.357720
01236		-0.735236	0.101082	0.647615	0.172645	28.043333	-80.823330	-50.436546
01237		-0.735225	0.100962	0.647612	0.172770	28.141142	-80.811237	-50.534968
01238		-0.735194	0.100853	0.647622	0.172930	28.257342	-80.799875	-50.655638
01239		-0.735155	0.100816	0.647613	0.173151	28.359765	-80.788445	-50.773407
01240		-0.735110	0.100804	0.647606	0.173373	28.453730	-80.778650	-50.884983
01241		-0.735063	0.100773	0.647612	0.173567	28.551357	-80.770320	-50.996225
01242		-0.735011	0.100711	0.647636	0.173731	28.659346	-80.763282	-51.112788
01243		-0.734948	0.100609	0.647681	0.173894	28.793533	-80.756197	-51.252222
01244		-0.734896	0.100522	0.647714	0.174040	28.908403	-80.749364	-51.371994
01245		-0.734832	0.100461	0.647748	0.174217	29.026529	-80.742901	-51.499827
01246		-0.734769	0.100449	0.647761	0.174446	29.134116	-80.734935	-51.625619
01247		-0.734686	0.100437	0.647796	0.174668	29.253335	-80.729934	-51.762288
01248		-0.734613	0.100430	0.647821	0.174886	29.361844	-80.724001	-51.888371
01249		-0.734545	0.100377	0.647860	0.175060	29.478194	-80.718571	-52.014804
01250		-0.734463	0.100295	0.647935	0.175172	29.601945	-80.718021	-52.141054
01251		-0.734385	0.100203	0.648014	0.175258	29.720808	-80.718150	-52.259509
01252		-0.734334	0.100091	0.648086	0.175271	29.812193	-80.718973	-52.342584
01253		-0.734267	0.099993	0.648167	0.175310	29.915235	-80.720732	-52.440742
01254		-0.734203	0.099997	0.648212	0.175407	29.982229	-80.722500	-52.516092
01255		-0.734128	0.100107	0.648227	0.175603	30.031791	-80.723347	-52.591014
01256		-0.734049	0.100290	0.648225	0.175838	30.059512	-80.725161	-52.653325
01257		-0.733981	0.100432	0.648226	0.176035	30.088937	-80.726517	-52.710829
01258		-0.733918	0.100532	0.648237	0.176199	30.126177	-80.727539	-52.769951
01259		-0.733852	0.100628	0.648267	0.176311	30.156157	-80.732576	-52.817056
01260		-0.733779	0.100686	0.648318	0.176392	30.200389	-80.738801	-52.872749
01261		-0.733730	0.100708	0.648366	0.176406	30.227778	-80.745146	-52.902989
01262		-0.733696	0.100745	0.648391	0.176436	30.242340	-80.749114	-52.923064
01263		-0.733619	0.100829	0.648453	0.176481	30.268944	-80.759649	-52.960186
01264		-0.733574	0.100923	0.648477	0.176525	30.267384	-80.766574	-52.969963
01265		-0.733554	0.101040	0.648469	0.176572	30.238437	-80.771077	-52.954578
01266		-0.733528	0.101146	0.648475	0.176597	30.213053	-80.777362	-52.939927
01267		-0.733506	0.101245	0.648483	0.176604	30.184126	-80.784183	-52.919686
01268		-0.733513	0.101345	0.648463	0.176589	30.128133	-80.788822	-52.870618
01269		-0.733513	0.101439	0.648462	0.176538	30.071136	-80.796561	-52.817119
01270		-0.733540	0.101491	0.648444	0.176461	30.008195	-80.800695	-52.752066
01271		-0.733612	0.101492	0.648400	0.176324	29.922933	-80.801025	-52.655404
01272		-0.733670	0.101501	0.648366	0.176205	29.847871	-80.802300	-52.571285
01273		-0.733737	0.101570	0.648296	0.176142	29.752182	-80.800991	-52.476099
01274		-0.733810	0.101663	0.648207	0.176111	29.648668	-80.797588	-52.377736
01275		-0.733862	0.101769	0.648134	0.176106	29.560766	-80.795849	-52.298245
01276		-0.733906	0.101837	0.648076	0.176092	29.493507	-80.794014	-52.235514
01277		-0.733961	0.101881	0.648025	0.176025	29.417179	-80.793319	-52.157348
01278		-0.734060	0.101806	0.647960	0.175897	29.351261	-80.786037	-52.074652
01279		-0.734158	0.101704	0.647910	0.175731	29.288767	-80.780305	-51.989998
01280		-0.734247	0.101617	0.647860	0.175592	29.232932	-80.774543	-51.915552
01281		-0.734338	0.101573	0.647785	0.175513	29.169980	-80.766039	-51.842595
01282		-0.734414	0.101560	0.647709	0.175483	29.115520	-80.757587	-51.784737
01283		-0.734489	0.101580	0.647621	0.175483	29.053875	-80.748543	-51.724878
01284		-0.734552	0.101619	0.647528	0.175540	29.006175	-80.737988	-51.685301
01285		-0.734582	0.101681	0.647464	0.175616	28.975046	-80.731441	-51.665670
01286		-0.734596	0.101697	0.647408	0.175753	28.992068	-80.720635	-51.695554
01287		-0.734587	0.101717	0.647369	0.175926	29.032785	-80.710774	-51.752482
01288		-0.734557	0.101727	0.647350	0.176110	29.094655	-80.702249	-51.830581
01289		-0.734503	0.101776	0.647339	0.176349	29.168648	-80.694941	-51.928555
01290		-0.734427	0.101874	0.647333	0.176632	29.245600	-80.689433	-52.037142
01291		-0.734327	0.101958	0.647362	0.176892	29.339890	-80.688010	-52.160002
01292		-0.734211	0.101998	0.647424	0.177124	29.459610	-80.688789	-52.302248
01293		-0.734105	0.102052	0.647467	0.177374	29.568890	-80.687492	-52.436842
01294		-0.734007	0.102103	0.647509	0.177599	29.669420	-80.686810	-52.560216
01295		-0.733904	0.102149	0.647544	0.177869	29.785212	-80.683255	-52.702312
01296		-0.733746	0.102209	0.647618	0.178217	29.952564	-80.681919	-52.903519
01297		-0.733570	0.102304	0.647691	0.178620	30.129562	-80.680440	-53.121813
01298		-0.733416	0.102403	0.647729	0.179056	30.296490	-80.673942	-53.333255
01299		-0.733278	0.102443	0.647771	0.179447	30.468559	-80.665768	-53.541261
01300		-0.733169	0.102390	0.647826	0.179725	30.635876	-80.657563	-53.727372
01301		-0.733056	0.102282	0.647914	0.179929	30.814330	-80.652669	-53.913925
01302		-0.732963	0.102168	0.647996	0.180075	30.966614	-80.648917	-54.068862
01303		-0.732891	0.102073	0.648055	0.180211	31.093694	-80.644052	-54.199454
01304		-0.732827	0.102045	0.648085	0.180383	31.192490	-80.638612	-54.310220
01305		-0.732794	0.102059	0.648072	0.180553	31.248072	-80.631169	-54.381258
01306		-0.732788	0.102080	0.648025	0.180735	31.284500	-80.619791	-54.434708
01307		-0.732778	0.102110	0.647982	0.180912	31.318066	-80.609777	-54.485610
01308		-0.732773	0.102106	0.647943	0.181075	31.360052	-80.598491	-54.541025
01309		-0.732807	0.102058	0.647886	0.181169	31.378814	-80.585153	-54.563772
01310		-0.732859	0.102004	0.647832	0.181182	31.369451	-80.575164	-54.551214
01311		-0.732952	0.101908	0.647759	0.181120	31.332081	-80.563390	-54.500904
01312		-0.733070	0.101792	0.647677	0.181002	31.273649	-80.551604	-54.423274
01313		-0.733187	0.101699	0.647594	0.180878	31.205208	-80.541323	-54.336992
01314		-0.733288	0.101689	0.647497	0.180819	31.123975	-80.532298	-54.250162
01315		-0.733398	0.101786	0.647368	0.180779	30.992591	-80.525503	-54.123589
01316		-0.733526	0.101923	0.647201	0.180781	30.840168	-80.515198	-53.983009
01317		-0.733663	0.102034	0.647034	0.180764	30.689700	-80.503969	-53.840513
01318		-0.733776	0.102087	0.646907	0.180724	30.576634	-80.494576	-53.728622
01319		-0.733903	0.102043	0.646810	0.180584	30.476236	-80.486329	-53.613143
01320		-0.734034	0.101939	0.646728	0.180402	30.389625	-80.477634	-53.502898
01321		-0.734165	0.101790	0.646665	0.180180	30.315644	-80.469895	-53.398293
01322		-0.734283	0.101614	0.646626	0.179937	30.256937	-80.464029	-53.304870
01323		-0.734411	0.101458	0.646561	0.179735	30.192883	-80.454808	-53.211270
01324		-0.734537	0.101301	0.646502	0.179524	30.128163	-80.446452	-53.116214
01325		-0.734645	0.101147	0.646450	0.179357	30.085269	-80.437495	-53.046772
01326		-0.734720	0.101015	0.646431	0.179193	30.055535	-80.433457	-52.992604
01327		-0.734775	0.100926	0.646415	0.179075	30.030623	-80.430710	-52.950534
01328		-0.734833	0.100851	0.646390	0.178968	29.999748	-80.427386	-52.904641
01329		-0.734892	0.100821	0.646350	0.178887	29.954230	-80.424026	-52.849938
01330		-0.734956	0.100824	0.646283	0.178864	29.903303	-80.417461	-52.797526
01331		-0.735007	0.100831	0.646220	0.178881	29.869794	-80.409970	-52.766123
01332		-0.735050	0.100837	0.646166	0.178893	29.840173	-80.403761	-52.738047
01333		-0.735049	0.100807	0.646154	0.178958	29.869612	-80.397944	-52.770468
01334		-0.735037	0.100759	0.646159	0.179016	29.913204	-80.393353	-52.814959
01335		-0.735004	0.100683	0.646185	0.179098	29.988887	-80.388419	-52.891217
01336		-0.734950	0.100614	0.646239	0.179165	30.072667	-80.387654	-52.974901
01337		-0.734877	0.100538	0.646321	0.179211	30.168124	-80.390476	-53.067792
01338		-0.734818	0.100411	0.646414	0.179189	30.261160	-80.394018	-53.148404
01339		-0.734764	0.100218	0.646526	0.179116	30.368895	-80.397637	-53.234009
01340		-0.734688	0.100054	0.646658	0.179041	30.477875	-80.405441	-53.323047
01341		-0.734608	0.099931	0.646786	0.178979	30.575367	-80.414626	-53.405008
01342		-0.734509	0.099909	0.646903	0.178974	30.652946	-80.426820	-53.480148
01343		-0.734408	0.099987	0.646989	0.179033	30.701715	-80.439127	-53.540062
01344		-0.734289	0.100177	0.647051	0.179188	30.733361	-80.451933	-53.600177
01345		-0.734177	0.100441	0.647071	0.179431	30.748113	-80.461005	-53.656828
01346		-0.734058	0.100726	0.647090	0.179687	30.760560	-80.470979	-53.713935
01347		-0.733929	0.101020	0.647122	0.179934	30.773850	-80.483125	-53.771910
01348		-0.733785	0.101290	0.647178	0.180165	30.805472	-80.497317	-53.844894
01349		-0.733632	0.101457	0.647280	0.180328	30.874257	-80.512877	-53.940745
01350		-0.733466	0.101579	0.647415	0.180450	30.963540	-80.530973	-54.050033
01351		-0.733287	0.101716	0.647559	0.180589	31.060697	-80.550139	-54.169696
01352		-0.733095	0.101864	0.647712	0.180733	31.162302	-80.571010	-54.295298
01353		-0.732914	0.102070	0.647834	0.180914	31.239028	-80.590500	-54.403707
01354		-0.732687	0.102356	0.647970	0.181183	31.332465	-80.612991	-54.542876
01355		-0.732421	0.102724	0.648112	0.181542	31.436963	-80.637742	-54.707329
01356		-0.732131	0.103222	0.648227	0.182020	31.526752	-80.662904	-54.877630
01357		-0.731828	0.103863	0.648283	0.182671	31.599745	-80.683602	-55.057648
01358		-0.731487	0.104595	0.648345	0.183400	31.676733	-80.707611	-55.255460
01359		-0.731086	0.105394	0.648431	0.184234	31.789627	-80.734382	-55.503559
01360		-0.730686	0.106225	0.648492	0.185129	31.901818	-80.757843	-55.758682
01361		-0.730281	0.107051	0.648535	0.186096	32.034979	-80.776096	-56.040629
01362		-0.729844	0.107877	0.648602	0.187097	32.199178	-80.795553	-56.356359
01363		-0.729342	0.108778	0.648711	0.188155	32.391038	-80.822163	-56.710613
01364		-0.728783	0.109851	0.648802	0.189378	32.582229	-80.851158	-57.092245
01365		-0.728123	0.111266	0.648900	0.190750	32.723490	-80.897150	-57.464635
01366		-0.727400	0.112925	0.649007	0.192161	32.808397	-80.959042	-57.803951
01367		-0.726671	0.114740	0.649048	0.193703	32.852851	-81.018778	-58.126879
01368		-0.725947	0.116548	0.649081	0.195221	32.890223	-81.078621	-58.440324
01369		-0.725197	0.118163	0.649185	0.196685	33.027873	-81.135833	-58.833633
01370		-0.724423	0.119559	0.649372	0.198075	33.274028	-81.190323	-59.311160
01371		-0.723647	0.120861	0.649596	0.199378	33.549839	-81.246244	-59.803278
01372		-0.722855	0.122117	0.649837	0.200700	33.868527	-81.299670	-60.336165
01373		-0.722054	0.123381	0.650061	0.202078	34.203597	-81.349287	-60.890997
01374		-0.721164	0.124878	0.650258	0.203695	34.551337	-81.401462	-61.497908
01375		-0.720169	0.126761	0.650377	0.205665	34.873118	-81.456483	-62.140685
01376		-0.719115	0.129075	0.650344	0.208006	35.107244	-81.509525	-62.763230
01377		-0.718060	0.131691	0.650144	0.210616	35.241436	-81.555371	-63.334064
01378		-0.717002	0.134471	0.649827	0.213427	35.328920	-81.592695	-63.889369
01379		-0.715885	0.137321	0.649501	0.216332	35.442057	-81.630673	-64.484581
01380		-0.714761	0.140125	0.649179	0.219200	35.569867	-81.668484	-65.087892
01381		-0.713634	0.142774	0.648899	0.221975	35.752655	-81.704263	-65.725967
01382		-0.712518	0.145246	0.648636	0.224704	35.996701	-81.731661	-66.407070
01383		-0.711419	0.147667	0.648337	0.227456	36.246794	-81.751181	-67.092515
01384		-0.710301	0.150181	0.647958	0.230366	36.483740	-81.762940	-67.786599
01385		-0.709130	0.152907	0.647463	0.233549	36.694271	-81.767002	-68.495839
01386		-0.707902	0.155850	0.646846	0.237016	36.876516	-81.763120	-69.220032
01387		-0.706617	0.158989	0.646128	0.240694	37.025399	-81.755587	-69.946072
01388		-0.705258	0.162233	0.645405	0.244424	37.181456	-81.754293	-70.693405
01389		-0.703844	0.165590	0.644644	0.248228	37.322620	-81.755997	-71.442545
01390		-0.702449	0.169010	0.643779	0.252091	37.401353	-81.751625	-72.140761
01391		-0.701038	0.172594	0.642817	0.256015	37.398875	-81.749953	-72.778047
01392		-0.699572	0.176392	0.641756	0.260066	37.332128	-81.751824	-73.381060
01393		-0.697967	0.180494	0.640627	0.264314	37.243284	-81.763936	-74.006073
01394		-0.696221	0.184879	0.639404	0.268809	37.141548	-81.780489	-74.664984
01395		-0.694343	0.189530	0.638054	0.273594	37.026893	-81.795415	-75.360527
01396		-0.692361	0.194395	0.636563	0.278629	36.885884	-81.806019	-76.071803
01397		-0.690270	0.199391	0.634976	0.283859	36.756294	-81.812675	-76.824955
01398		-0.688072	0.204407	0.633363	0.289182	36.681775	-81.817624	-77.645588
01399		-0.685787	0.209340	0.631799	0.294453	36.688120	-81.826065	-78.537891
01400		-0.683396	0.214167	0.630381	0.299537	36.803110	-81.850470	-79.515403
01401		-0.680945	0.218732	0.629175	0.304318	37.067092	-81.888337	-80.594715
01402		-0.678542	0.222984	0.628047	0.308894	37.404282	-81.918746	-81.704129
01403		-0.676238	0.226946	0.626897	0.313365	37.755594	-81.930025	-82.795715
01404		-0.673949	0.230635	0.625791	0.317783	38.198184	-81.925437	-83.952246
01405		-0.671631	0.234125	0.624750	0.322155	38.737484	-81.911892	-85.186088
01406		-0.669224	0.237475	0.623741	0.326638	39.401780	-81.882737	-86.544484
01407		-0.666729	0.240751	0.622728	0.331242	40.147124	-81.839825	-87.990518
01408		-0.664127	0.243998	0.621666	0.336054	40.957028	-81.778571	-89.519635
01409		-0.661439	0.247213	0.620542	0.341045	41.801034	-81.698829	-91.098641
01410		-0.658689	0.250340	0.619387	0.346148	42.676592	-81.601482	-92.714268
01411		-0.655893	0.253367	0.618225	0.351292	43.572486	-81.490684	-94.347815
01412		-0.653046	0.256302	0.617069	0.356463	44.487603	-81.368333	-95.997458
01413		-0.650146	0.259269	0.615839	0.361706	45.355720	-81.237967	-97.612300
01414		-0.647161	0.262291	0.614505	0.367112	46.182935	-81.094955	-99.209082
01415		-0.644079	0.265479	0.613036	0.372653	46.933423	-80.949515	-100.759637
01416		-0.640830	0.268944	0.611425	0.378373	47.623622	-80.808759	-102.294495
01417		-0.637394	0.272710	0.609666	0.384273	48.261070	-80.674848	-103.823872
01418		-0.633746	0.276819	0.607772	0.390320	48.858188	-80.554775	-105.361603
01419		-0.629988	0.281267	0.605739	0.396338	49.362304	-80.460163	-106.838245
01420		-0.626259	0.285926	0.603676	0.402021	49.772206	-80.405507	-108.211904
01421		-0.622691	0.290611	0.601660	0.407193	50.093949	-80.389757	-109.454877
01422		-0.619436	0.295138	0.599632	0.411865	50.259033	-80.395385	-110.482521
01423		-0.616474	0.299482	0.597553	0.416174	50.271176	-80.409929	-111.308953
01424		-0.613711	0.303654	0.595423	0.420267	50.177548	-80.424395	-111.996281
01425		-0.611083	0.307635	0.593270	0.424227	50.027346	-80.431976	-112.599806
01426		-0.608636	0.311349	0.591113	0.428029	49.814643	-80.428402	-113.103820
01427		-0.606410	0.314764	0.589066	0.431500	49.575346	-80.426100	-113.523476
01428		-0.604312	0.317969	0.587184	0.434647	49.369980	-80.433273	-113.927617
01429		-0.602365	0.320984	0.585397	0.437535	49.154124	-80.445445	-114.279721
01430		-0.600536	0.323893	0.583657	0.440221	48.911311	-80.464460	-114.576492
01431		-0.598911	0.326835	0.581823	0.442681	48.515660	-80.500687	-114.702395
01432		-0.597562	0.329791	0.579924	0.444798	47.942837	-80.561504	-114.619291
01433		-0.596470	0.332770	0.578054	0.446476	47.237382	-80.656182	-114.362530
01434		-0.595583	0.335701	0.576274	0.447766	46.458200	-80.775830	-113.989081
01435		-0.594783	0.338521	0.574615	0.448837	45.686983	-80.903564	-113.591935
01436		-0.593997	0.341277	0.573013	0.449837	44.926246	-81.031575	-113.192824
01437		-0.593130	0.344072	0.571415	0.450884	44.189728	-81.159396	-112.827161
01438		-0.592093	0.346962	0.569843	0.452021	43.528746	-81.290004	-112.555977
01439		-0.590814	0.349985	0.568313	0.453287	42.989723	-81.425314	-112.433498
01440		-0.589368	0.353033	0.566866	0.454617	42.574974	-81.561703	-112.445000
01441		-0.587861	0.356004	0.565539	0.455903	42.261597	-81.698470	-112.546910
01442		-0.586358	0.358803	0.564366	0.457095	42.050197	-81.831733	-112.725767
01443		-0.584904	0.361445	0.563295	0.458196	41.888404	-81.960630	-112.930670
01444		-0.583527	0.363998	0.562202	0.459272	41.684299	-82.082776	-113.083001
01445		-0.582320	0.366448	0.561005	0.460318	41.335146	-82.194203	-113.078286
01446		-0.581220	0.368877	0.559701	0.461355	40.858267	-82.300690	-112.943918
01447		-0.580135	0.371413	0.558265	0.462424	40.266733	-82.410057	-112.709639
01448		-0.579031	0.374081	0.556636	0.463619	39.543918	-82.516012	-112.370952
01449		-0.577831	0.376945	0.554800	0.464994	38.716309	-82.620382	-111.966685
01450		-0.576460	0.380014	0.552825	0.466548	37.866713	-82.726526	-111.580345
01451		-0.574876	0.383259	0.550781	0.468264	37.068493	-82.836155	-111.281112
01452		-0.573125	0.386630	0.548684	0.470096	36.309462	-82.948420	-111.047436
01453		-0.571235	0.390121	0.546457	0.472102	35.535673	-83.056151	-110.831136
01454		-0.569233	0.393680	0.544112	0.474270	34.747699	-83.156000	-110.626824
01455		-0.567188	0.397222	0.541684	0.476540	33.938282	-83.244976	-110.412680
01456		-0.565114	0.400656	0.539322	0.478803	33.204043	-83.328147	-110.264451
01457		-0.563092	0.403903	0.537147	0.480898	32.571982	-83.412960	-110.183746
01458		-0.561149	0.406849	0.535246	0.482802	32.110954	-83.494133	-110.224981
01459		-0.559362	0.409449	0.533620	0.484474	31.782913	-83.569569	-110.340742
01460		-0.557650	0.411771	0.532249	0.485986	31.628041	-83.640742	-110.585027
01461		-0.555983	0.413902	0.530994	0.487456	31.569277	-83.702309	-110.902595
01462		-0.554257	0.415944	0.529810	0.488969	31.637683	-83.757062	-111.343793
01463		-0.552381	0.417958	0.528631	0.490648	31.859110	-83.800613	-111.954145
01464		-0.550222	0.420036	0.527448	0.492569	32.309543	-83.836897	-112.827462
01465		-0.547671	0.422249	0.526256	0.494790	33.059007	-83.868390	-114.047788
01466		-0.544710	0.424658	0.524923	0.497405	34.020806	-83.888339	-115.545920
01467		-0.541407	0.427376	0.523224	0.500464	34.956991	-83.894329	-117.102096
01468		-0.537727	0.430418	0.521141	0.503987	35.868467	-83.886309	-118.722427
01469		-0.533670	0.433678	0.518878	0.507823	36.905029	-83.870800	-120.530079
01470		-0.529330	0.436984	0.516590	0.511848	38.128900	-83.843684	-122.555931
01471		-0.524869	0.440164	0.514530	0.515777	39.608783	-83.813198	-124.818629
01472		-0.520466	0.443196	0.512629	0.519523	41.156645	-83.779774	-127.117576
01473		-0.516383	0.446079	0.510760	0.522959	42.483956	-83.750782	-129.149399
01474		-0.512724	0.448754	0.508895	0.526079	43.508237	-83.723678	-130.823376
01475		-0.509376	0.451286	0.507014	0.528975	44.295855	-83.698920	-132.222532
01476		-0.506170	0.453717	0.505033	0.531859	44.901547	-83.664400	-133.430981
01477		-0.503009	0.456110	0.502940	0.534786	45.381662	-83.621736	-134.517865
01478		-0.499807	0.458433	0.500739	0.537859	45.794203	-83.560425	-135.550078
01479		-0.496547	0.460719	0.498412	0.541077	46.133345	-83.483454	-136.525768
01480		-0.493240	0.462990	0.495929	0.544435	46.367502	-83.393439	-137.415263
01481		-0.489802	0.465325	0.493313	0.547913	46.570286	-83.298135	-138.299251
01482		-0.486166	0.467726	0.490716	0.551427	46.898459	-83.203839	-139.324903
01483		-0.482355	0.470191	0.488154	0.554941	47.346731	-83.112583	-140.482486
01484		-0.478391	0.472617	0.485703	0.558452	47.946245	-83.015378	-141.791524
01485		-0.474383	0.474941	0.483413	0.561874	48.661372	-82.913525	-143.198700
01486		-0.470440	0.477075	0.481302	0.565186	49.428542	-82.801673	-144.626959
01487		-0.466641	0.479082	0.479302	0.568328	50.160502	-82.691251	-145.988516
01488		-0.462987	0.481024	0.477393	0.571275	50.853938	-82.589419	-147.283219
01489		-0.459520	0.482922	0.475596	0.573965	51.515382	-82.503456	-148.511680
01490		-0.456261	0.484765	0.473874	0.576431	52.110612	-82.431058	-149.641710
01491		-0.453213	0.486613	0.472071	0.578753	52.541849	-82.373587	-150.592373
01492		-0.450328	0.488485	0.470247	0.580908	52.885253	-82.333442	-151.438978
01493		-0.447651	0.490333	0.468483	0.582843	53.176985	-82.310624	-152.204506
01494		-0.445074	0.492161	0.466814	0.584611	53.493409	-82.298774	-152.972765
01495		-0.442580	0.494030	0.465178	0.586231	53.812412	-82.302222	-153.730874
01496		-0.440091	0.495875	0.463572	0.587817	54.149946	-82.305170	-154.502262
01497		-0.437506	0.497776	0.461861	0.589484	54.469762	-82.305626	-155.275544
01498		-0.434709	0.499795	0.459990	0.591306	54.795567	-82.301468	-156.092282
01499		-0.431725	0.502013	0.457992	0.593161	55.166495	-82.308063	-156.985836
01500		-0.428668	0.504423	0.455791	0.595026	55.481043	-82.330953	-157.850727
01501		-0.425736	0.506937	0.453456	0.596777	55.687522	-82.376156	-158.607570
01502		-0.423095	0.509406	0.451069	0.598359	55.735296	-82.438824	-159.179716
01503		-0.420887	0.511699	0.448863	0.599617	55.699564	-82.518919	-159.603922
01504		-0.419197	0.513689	0.446893	0.600571	55.538355	-82.605924	-159.824078
01505		-0.417997	0.515372	0.445197	0.601224	55.285403	-82.697794	-159.873137
01506		-0.417200	0.516786	0.443755	0.601630	54.968412	-82.791621	-159.790417
01507		-0.416636	0.518041	0.442456	0.601898	54.605426	-82.885830	-159.622639
01508		-0.416114	0.519207	0.441165	0.602201	54.193100	-82.971032	-159.399713
01509		-0.415494	0.520397	0.439725	0.602655	53.703067	-83.047326	-159.123596
01510		-0.414680	0.521653	0.438043	0.603355	53.119008	-83.110324	-158.796837
01511		-0.413673	0.522949	0.436064	0.604356	52.387004	-83.154655	-158.370692
01512		-0.412628	0.524252	0.433900	0.605499	51.515910	-83.190842	-157.827123
01513		-0.411714	0.525504	0.431686	0.606617	50.517013	-83.227277	-157.146779
01514		-0.411068	0.526670	0.429671	0.607474	49.514507	-83.277407	-156.415487
01515		-0.410883	0.527680	0.428047	0.607869	48.537927	-83.351506	-155.624808
01516		-0.411365	0.528529	0.426979	0.607556	47.601428	-83.469187	-154.752452
01517		-0.412651	0.529238	0.426465	0.606428	46.605879	-83.642799	-153.686296
01518		-0.414786	0.529799	0.426501	0.604452	45.482745	-83.873986	-152.353207
01519		-0.417734	0.530132	0.426961	0.601799	44.067747	-84.142408	-150.604016
01520		-0.421229	0.530319	0.427534	0.598784	42.194395	-84.426753	-148.328902
01521		-0.424932	0.530531	0.427890	0.595717	39.731501	-84.710780	-145.463760
01522		-0.428423	0.531047	0.427840	0.592786	36.763571	-84.995605	-142.155071
01523		-0.431353	0.532081	0.427303	0.590115	33.430149	-85.284834	-138.586891
01524		-0.433533	0.533745	0.426198	0.587810	29.745785	-85.577945	-134.801720
01525		-0.434961	0.535956	0.424596	0.585900	25.735079	-85.865961	-130.817028
01526		-0.435855	0.538502	0.422546	0.584381	21.219796	-86.128540	-126.426713
01527		-0.436495	0.541174	0.420243	0.583094	16.118140	-86.356320	-121.500353
01528		-0.437088	0.543750	0.417889	0.581944	10.529660	-86.535659	-116.095477
01529		-0.437858	0.546089	0.415735	0.580717	4.571099	-86.670003	-110.280856
01530		-0.438943	0.548103	0.413955	0.579270	-1.611157	-86.762744	-104.171219
01531		-0.440388	0.549755	0.412581	0.577585	-7.863363	-86.811846	-97.912816
01532		-0.442152	0.551089	0.411515	0.575724	-14.050158	-86.814189	-91.655118
01533		-0.444192	0.552195	0.410657	0.573703	-20.117134	-86.771427	-85.466967
01534		-0.446348	0.553176	0.409924	0.571604	-25.882197	-86.691974	-79.555289
01535		-0.448529	0.554143	0.409257	0.569435	-31.364675	-86.584551	-73.916123
01536		-0.450668	0.555152	0.408652	0.567194	-36.568170	-86.457830	-68.553099
01537		-0.452747	0.556206	0.408039	0.564941	-41.428933	-86.308285	-63.538946
01538		-0.454818	0.557300	0.407420	0.562642	-45.976742	-86.134383	-58.838316
01539		-0.456951	0.558390	0.406797	0.560280	-50.169532	-85.932315	-54.485510
01540		-0.459195	0.559471	0.406192	0.557800	-54.045923	-85.702097	-50.434647
01541		-0.461546	0.560525	0.405611	0.555218	-57.565317	-85.446128	-46.725826
01542		-0.464032	0.561515	0.405100	0.552511	-60.726102	-85.167989	-43.353171
01543		-0.466626	0.562453	0.404640	0.549703	-63.548488	-84.870513	-40.301021
01544		-0.469329	0.563335	0.404195	0.546819	-66.031810	-84.553203	-37.573407
01545		-0.472125	0.564139	0.403747	0.543906	-68.158601	-84.219512	-35.191089
01546		-0.474974	0.564896	0.403251	0.541000	-69.972778	-83.871376	-33.118918
01547		-0.477860	0.565624	0.402639	0.538146	-71.486568	-83.507536	-31.353352
01548		-0.480725	0.566414	0.401773	0.535404	-72.750497	-83.122751	-29.863643
01549		-0.483581	0.567309	0.400633	0.532732	-73.836668	-82.713342	-28.578616
01550		-0.486380	0.568313	0.399220	0.530169	-74.759765	-82.285016	-27.488439
01551		-0.489060	0.569405	0.397703	0.527665	-75.606442	-81.854650	-26.496237
01552		-0.491564	0.570577	0.396107	0.525267	-76.383316	-81.430164	-25.599390
01553		-0.493846	0.571779	0.394453	0.523060	-77.058033	-81.021693	-24.833534
01554		-0.495843	0.573006	0.392869	0.521016	-77.700533	-80.642632	-24.123221
01555		-0.497517	0.574300	0.391418	0.519085	-78.381273	-80.296840	-23.395637
01556		-0.498885	0.575703	0.390067	0.517231	-79.127321	-79.977598	-22.625382
01557		-0.500313	0.577175	0.388615	0.515301	-79.849207	-79.639294	-21.881542
01558		-0.501866	0.578741	0.387269	0.513042	-80.666672	-79.281049	-21.015414
01559		-0.503520	0.580150	0.386353	0.510515	-81.513082	-78.938803	-20.064902
01560		-0.505371	0.581172	0.385520	0.508148	-82.075704	-78.609253	-19.368844
01561		-0.507455	0.581689	0.384743	0.506064	-82.285598	-78.299987	-18.995692
01562		-0.509695	0.581728	0.384613	0.503861	-82.421668	-78.039650	-18.614910
01563		-0.511718	0.581493	0.385235	0.501602	-82.648582	-77.855263	-18.092481
01564		-0.513133	0.581289	0.386172	0.499669	-82.977202	-77.746798	-17.505098
01565		-0.513595	0.581411	0.386986	0.498421	-83.415938	-77.710031	-16.927769
01566		-0.513018	0.582045	0.387432	0.497929	-83.993359	-77.728871	-16.365923
01567		-0.511559	0.583084	0.387673	0.498026	-84.720165	-77.800419	-15.774671
01568		-0.509684	0.584181	0.387921	0.498469	-85.481365	-77.912056	-15.195684
01569		-0.507946	0.584932	0.388417	0.498976	-86.130825	-78.048806	-14.689498
01570		-0.506832	0.585078	0.389380	0.499188	-86.601238	-78.188983	-14.247124
01571		-0.506649	0.584468	0.390904	0.498896	-86.834754	-78.316310	-13.882670
01572		-0.507478	0.583147	0.392831	0.498086	-86.790310	-78.412953	-13.643471
01573		-0.509124	0.581318	0.394897	0.496909	-86.485157	-78.471987	-13.559659
01574		-0.511210	0.579371	0.396807	0.495517	-86.050595	-78.487283	-13.570210
01575		-0.513398	0.577557	0.398522	0.493994	-85.634113	-78.470166	-13.568433
01576		-0.515535	0.575947	0.400054	0.492407	-85.285354	-78.431317	-13.520921
01577		-0.517582	0.574493	0.401368	0.490887	-84.952252	-78.379763	-13.488517
01578		-0.519553	0.573144	0.402557	0.489406	-84.640278	-78.321737	-13.455080
01579		-0.521523	0.571837	0.403695	0.487901	-84.341355	-78.257304	-13.412689
01580		-0.523495	0.570610	0.404699	0.486390	-84.046762	-78.179582	-13.377912
01581		-0.525427	0.569510	0.405542	0.484892	-83.773066	-78.088462	-13.342134
01582		-0.527326	0.568592	0.406092	0.483445	-83.500789	-77.973805	-13.337277
01583		-0.529221	0.567807	0.406292	0.482128	-83.174408	-77.835741	-13.422279
01584		-0.531083	0.567195	0.406152	0.480918	-82.825172	-77.673953	-13.567934
01585		-0.532835	0.566753	0.405769	0.479823	-82.490343	-77.500329	-13.736023
01586		-0.534427	0.566520	0.405197	0.478810	-82.213517	-77.318781	-13.883071
01587		-0.535764	0.566536	0.404483	0.477899	-82.031207	-77.137930	-13.978930
01588		-0.536848	0.566799	0.403665	0.477062	-81.952716	-76.959173	-14.009955
01589		-0.537684	0.567240	0.402795	0.476331	-81.952589	-76.790437	-13.996283
01590		-0.538280	0.567840	0.401916	0.475685	-82.032721	-76.633756	-13.930745
01591		-0.538737	0.568492	0.401056	0.475114	-82.141966	-76.488907	-13.850362
01592		-0.539127	0.569172	0.400175	0.474600	-82.255299	-76.348332	-13.775907
01593		-0.539587	0.569755	0.399313	0.474103	-82.320083	-76.209515	-13.740199
01594		-0.540185	0.570210	0.398476	0.473579	-82.325304	-76.067682	-13.745736
01595		-0.540916	0.570538	0.397649	0.473046	-82.267938	-75.923092	-13.797679
01596		-0.541694	0.570820	0.396866	0.472471	-82.204282	-75.778293	-13.845699
01597		-0.542500	0.571067	0.396149	0.471849	-82.147181	-75.635487	-13.876877
01598		-0.543323	0.571221	0.395534	0.471232	-82.074258	-75.502977	-13.911886
01599		-0.544109	0.571236	0.394937	0.470807	-81.926288	-75.389158	-14.025975
01600		-0.544715	0.571276	0.394289	0.470600	-81.766193	-75.292895	-14.179474
01601		-0.544968	0.571506	0.393553	0.470645	-81.663629	-75.217355	-14.326461
01602		-0.544920	0.572000	0.392633	0.470869	-81.631278	-75.145821	-14.456819
01603		-0.544700	0.572754	0.391639	0.471035	-81.712631	-75.066554	-14.499512
01604		-0.544425	0.573598	0.390850	0.470982	-81.910055	-74.990868	-14.409972
01605		-0.544248	0.574153	0.390154	0.471087	-81.981245	-74.935199	-14.427911
01606		-0.544342	0.574159	0.389714	0.471334	-81.845098	-74.909790	-14.598911
01607		-0.544661	0.573567	0.390150	0.471327	-81.675200	-74.944174	-14.690185
01608		-0.545050	0.572469	0.391812	0.470832	-81.631787	-75.058178	-14.521941
01609		-0.545185	0.571229	0.393972	0.470379	-81.661711	-75.231510	-14.259993
01610		-0.544880	0.570151	0.395984	0.470352	-81.711042	-75.436653	-14.046709
01611		-0.543963	0.569488	0.397564	0.470882	-81.817111	-75.660277	-13.893149
01612		-0.542595	0.569144	0.398781	0.471847	-81.956781	-75.894976	-13.796688
01613		-0.541120	0.568869	0.399693	0.473100	-82.025008	-76.126368	-13.816049
01614		-0.539895	0.568311	0.400614	0.474389	-81.942711	-76.355844	-13.956737
01615		-0.539261	0.567220	0.401836	0.475380	-81.683864	-76.576223	-14.174478
01616		-0.539470	0.565430	0.403445	0.475912	-81.188592	-76.776113	-14.490951
01617		-0.540449	0.563052	0.405275	0.476067	-80.455423	-76.947051	-14.932588
01618		-0.541888	0.560429	0.407211	0.475874	-79.636925	-77.087500	-15.392967
01619		-0.543389	0.557874	0.409206	0.475451	-78.888500	-77.213452	-15.767218
01620		-0.544773	0.555540	0.411245	0.474843	-78.290450	-77.332307	-15.997559
01621		-0.546025	0.553385	0.413342	0.474099	-77.824352	-77.450560	-16.102786
01622		-0.547289	0.551288	0.415398	0.473288	-77.383983	-77.559648	-16.183581
01623		-0.548612	0.549202	0.417343	0.472469	-76.914053	-77.655754	-16.297287
01624		-0.549991	0.547141	0.419160	0.471647	-76.416839	-77.737214	-16.443807
01625		-0.551363	0.545236	0.420784	0.470805	-75.948004	-77.798151	-16.581513
01626		-0.552632	0.543618	0.422129	0.469983	-75.552740	-77.835557	-16.685378
01627		-0.553681	0.542377	0.423115	0.469296	-75.241555	-77.853260	-16.768130
01628		-0.554432	0.541550	0.423760	0.468782	-75.038260	-77.858146	-16.813691
01629		-0.554812	0.541101	0.424168	0.468481	-74.949512	-77.865919	-16.813788
01630		-0.554881	0.541000	0.424321	0.468378	-74.953404	-77.871878	-16.785340
01631		-0.554669	0.541229	0.424272	0.468408	-75.065708	-77.875564	-16.702995
01632		-0.554269	0.541719	0.424052	0.468515	-75.262838	-77.873126	-16.576041
01633		-0.553749	0.542368	0.423749	0.468653	-75.520441	-77.867997	-16.411176
01634		-0.553206	0.543108	0.423485	0.468677	-75.857385	-77.858844	-16.164824
01635		-0.552753	0.543863	0.423304	0.468499	-76.253406	-77.840027	-15.838557
01636		-0.552521	0.544511	0.423213	0.468102	-76.641562	-77.806844	-15.483639
01637		-0.552549	0.545006	0.423201	0.467503	-76.988463	-77.758427	-15.129808
01638		-0.552829	0.545367	0.423245	0.466710	-77.295108	-77.693456	-14.779783
01639		-0.553219	0.545725	0.423297	0.465782	-77.612816	-77.615272	-14.403935
01640		-0.553636	0.546146	0.423223	0.464859	-77.919666	-77.523560	-14.048551
01641		-0.554002	0.546727	0.422870	0.464061	-78.204835	-77.414145	-13.750253
01642		-0.554237	0.547575	0.422179	0.463409	-78.507375	-77.284982	-13.485535
01643		-0.554268	0.548766	0.421203	0.462850	-78.891039	-77.138820	-13.193111
01644		-0.554143	0.550210	0.420037	0.462346	-79.338692	-76.981005	-12.874449
01645		-0.553977	0.551757	0.418749	0.461870	-79.792002	-76.813746	-12.567234
01646		-0.553872	0.553303	0.417323	0.461436	-80.188145	-76.634371	-12.324029
01647		-0.553867	0.554743	0.415820	0.461070	-80.489915	-76.450616	-12.171767
01648		-0.553876	0.556085	0.414191	0.460908	-80.681219	-76.271068	-12.142593
01649		-0.553723	0.557348	0.412536	0.461052	-80.800571	-76.118363	-12.209355
01650		-0.553288	0.558555	0.410874	0.461596	-80.864316	-76.005050	-12.368150
01651		-0.552588	0.559797	0.409166	0.462446	-80.914014	-75.919012	-12.578640
01652		-0.551955	0.561108	0.407340	0.463225	-80.970201	-75.814022	-12.785636
01653		-0.551652	0.562358	0.405878	0.463353	-81.152282	-75.684306	-12.785658
01654		-0.551928	0.563141	0.405027	0.462819	-81.323063	-75.547676	-12.663063
01655		-0.552993	0.563057	0.404693	0.461940	-81.232401	-75.416663	-12.656412
01656		-0.554850	0.562058	0.404951	0.460702	-80.884154	-75.297612	-12.753594
01657		-0.557241	0.560225	0.406372	0.458794	-80.514227	-75.228494	-12.687211
01658		-0.559572	0.558030	0.408739	0.456524	-80.275135	-75.227486	-12.396817
01659		-0.561290	0.556106	0.411090	0.454647	-80.147109	-75.272542	-12.069906
01660		-0.562170	0.554928	0.412649	0.453586	-80.101935	-75.323903	-11.844690
01661		-0.562150	0.554595	0.413340	0.453390	-80.158239	-75.378219	-11.718899
01662		-0.561465	0.554786	0.413509	0.453850	-80.273985	-75.448229	-11.670392
01663		-0.560582	0.554972	0.413420	0.454795	-80.277011	-75.536734	-11.788676
01664		-0.559871	0.554796	0.413352	0.455946	-80.089380	-75.641053	-12.077382
01665		-0.559557	0.554081	0.413521	0.457046	-79.701022	-75.756263	-12.496137
01666		-0.559640	0.552921	0.413935	0.457974	-79.167006	-75.872578	-12.987793
01667		-0.559961	0.551472	0.414560	0.458762	-78.553087	-75.992356	-13.508676
01668		-0.560342	0.549897	0.415433	0.459397	-77.953128	-76.122555	-13.981603
01669		-0.560637	0.548302	0.416609	0.459878	-77.440169	-76.272983	-14.345108
01670		-0.560962	0.546646	0.418020	0.460173	-76.975071	-76.431510	-14.631186
01671		-0.561495	0.544783	0.419570	0.460322	-76.450560	-76.587089	-14.936366
01672		-0.562389	0.542649	0.421208	0.460256	-75.824784	-76.725012	-15.288986
01673		-0.563633	0.540264	0.422914	0.459975	-75.102172	-76.843523	-15.687525
01674		-0.565144	0.537740	0.424614	0.459512	-74.319309	-76.939387	-16.112846
01675		-0.566791	0.535188	0.426262	0.458936	-73.515600	-77.017134	-16.546138
01676		-0.568399	0.532732	0.427809	0.458366	-72.729549	-77.085425	-16.975811
01677		-0.569780	0.530542	0.429166	0.457921	-72.012134	-77.149580	-17.383429
01678		-0.570826	0.528744	0.430278	0.457655	-71.406229	-77.211174	-17.745940
01679		-0.571422	0.527418	0.431134	0.457637	-70.941584	-77.277984	-18.049498
01680		-0.571599	0.526528	0.431741	0.457867	-70.601665	-77.349856	-18.306136
01681		-0.571386	0.526019	0.432106	0.458374	-70.354328	-77.428519	-18.544699
01682		-0.570894	0.525788	0.432289	0.459078	-70.173522	-77.511267	-18.770757
01683		-0.570203	0.525784	0.432317	0.459915	-70.049749	-77.593730	-18.980788
01684		-0.569369	0.525947	0.432266	0.460809	-69.983410	-77.676906	-19.159110
01685		-0.568461	0.526168	0.432253	0.461689	-69.961798	-77.765895	-19.297286
01686		-0.567535	0.526432	0.432327	0.462458	-70.005435	-77.857156	-19.362379
01687		-0.566618	0.526714	0.432413	0.463179	-70.070236	-77.946345	-19.403262
01688		-0.565741	0.527023	0.432497	0.463821	-70.163207	-78.028635	-19.410841
01689		-0.564863	0.527373	0.432544	0.464449	-70.272467	-78.106458	-19.405816
01690		-0.563964	0.527807	0.432505	0.465085	-70.403672	-78.176783	-19.390326
01691		-0.563056	0.528338	0.432410	0.465669	-70.584216	-78.238394	-19.331746
01692		-0.562175	0.528964	0.432278	0.466146	-70.827117	-78.288060	-19.210752
01693		-0.561322	0.529646	0.432144	0.466524	-71.120153	-78.329983	-19.035552
01694		-0.560528	0.530346	0.432031	0.466787	-71.450526	-78.364041	-18.812915
01695		-0.559841	0.531050	0.431883	0.466948	-71.789954	-78.383662	-18.571430
01696		-0.559203	0.531809	0.431721	0.466999	-72.175229	-78.392279	-18.278809
01697		-0.558552	0.532616	0.431604	0.466967	-72.616405	-78.399762	-17.926566
01698		-0.557890	0.533467	0.431516	0.466868	-73.103902	-78.405414	-17.525454
01699		-0.557227	0.534395	0.431329	0.466771	-73.604919	-78.400428	-17.121304
01700		-0.556591	0.535359	0.431045	0.466688	-74.092691	-78.384975	-16.737313
01701		-0.556025	0.536324	0.430706	0.466567	-74.567159	-78.358404	-16.363494
01702		-0.555456	0.537313	0.430298	0.466483	-75.026272	-78.327134	-16.012889
01703		-0.554775	0.538415	0.429806	0.466477	-75.511722	-78.295668	-15.658083
01704		-0.553927	0.539690	0.429182	0.466586	-76.038747	-78.263866	-15.295648
01705		-0.552892	0.541151	0.428437	0.466806	-76.619580	-78.232604	-14.914205
01706		-0.551654	0.542789	0.427625	0.467113	-77.271529	-78.206358	-14.492470
01707		-0.550222	0.544568	0.426748	0.467534	-77.971173	-78.186674	-14.052541
01708		-0.548601	0.546500	0.425716	0.468124	-78.690542	-78.168942	-13.631425
01709		-0.546815	0.548551	0.424493	0.468925	-79.392406	-78.152353	-13.267232
01710		-0.544883	0.550758	0.423134	0.469815	-80.131419	-78.132386	-12.896433
01711		-0.542891	0.552978	0.421704	0.470797	-80.847457	-78.114184	-12.562110
01712		-0.540815	0.555238	0.420181	0.471888	-81.546644	-78.097566	-12.263561
01713		-0.538685	0.557521	0.418593	0.473041	-82.236064	-78.081075	-11.986630
01714		-0.536546	0.559790	0.416956	0.474237	-82.899275	-78.063961	-11.740863
01715		-0.534459	0.562020	0.415260	0.475444	-83.519576	-78.041029	-11.537002
01716		-0.532475	0.564156	0.413501	0.476672	-84.061210	-78.012213	-11.405350
01717		-0.530545	0.566246	0.411694	0.477908	-84.559304	-77.978879	-11.314859
01718		-0.528608	0.568305	0.409831	0.479209	-85.017715	-77.946744	-11.269785
01719		-0.526621	0.570339	0.407965	0.480570	-85.461955	-77.921638	-11.243862
01720		-0.524620	0.572318	0.406052	0.482025	-85.855340	-77.901518	-11.274670
01721		-0.522604	0.574230	0.404117	0.483564	-86.202111	-77.888380	-11.355478
01722		-0.520591	0.576099	0.402147	0.485152	-86.512638	-77.877176	-11.474611
01723		-0.518595	0.577903	0.400116	0.486821	-86.762083	-77.868266	-11.658538
01724		-0.516640	0.579593	0.397922	0.488685	-86.875985	-77.861379	-11.989729
01725		-0.514534	0.581290	0.395556	0.490808	-86.925407	-77.865653	-12.419581
01726		-0.512145	0.583069	0.393078	0.493181	-86.983668	-77.888987	-12.882603
01727		-0.509478	0.584916	0.390572	0.495741	-87.078251	-77.934427	-13.341740
01728		-0.506590	0.586735	0.388030	0.498539	-87.145780	-78.004715	-13.854885
01729		-0.503506	0.588485	0.385428	0.501609	-87.147582	-78.100276	-14.460313
01730		-0.500171	0.590180	0.382744	0.504999	-87.081565	-78.224626	-15.168089
01731		-0.496510	0.591842	0.380088	0.508660	-87.006535	-78.386202	-15.915758
01732		-0.492538	0.593419	0.377550	0.512559	-86.922343	-78.590812	-16.692406
01733		-0.488369	0.594879	0.375088	0.516647	-86.788072	-78.827189	-17.530324
01734		-0.484171	0.596095	0.372769	0.520857	-86.538300	-79.090978	-18.469936
01735		-0.480049	0.597020	0.370715	0.525062	-86.181364	-79.379121	-19.479764
01736		-0.476069	0.597635	0.368959	0.529207	-85.706208	-79.687137	-20.560746
01737		-0.472285	0.597933	0.367491	0.533266	-85.088846	-80.009443	-21.732461
01738		-0.468798	0.597824	0.366363	0.537227	-84.262005	-80.344829	-23.047365
01739		-0.465621	0.597327	0.365544	0.541086	-83.201703	-80.687857	-24.531262
01740		-0.462566	0.596558	0.365097	0.544844	-82.001613	-81.050354	-26.104500
01741		-0.459577	0.595641	0.364964	0.548455	-80.726335	-81.425076	-27.713650
01742		-0.456556	0.594649	0.364955	0.552048	-79.323460	-81.807255	-29.439727
01743		-0.453432	0.593696	0.364890	0.555680	-77.786453	-82.186198	-31.314095
01744		-0.450170	0.592785	0.364832	0.559331	-76.130532	-82.567643	-33.318575
01745		-0.446817	0.591886	0.364806	0.562976	-74.319787	-82.949554	-35.482030
01746		-0.443355	0.591001	0.364904	0.566568	-72.374776	-83.338365	-37.776790
01747		-0.439862	0.590107	0.365204	0.570018	-70.301787	-83.732269	-40.180991
01748		-0.436355	0.589229	0.365529	0.573405	-67.999944	-84.116998	-42.811019
01749		-0.432946	0.588363	0.365821	0.576682	-65.437031	-84.477067	-45.693102
01750		-0.429617	0.587498	0.366146	0.579838	-62.599312	-84.818016	-48.836833
01751		-0.426412	0.586648	0.366502	0.582832	-59.506964	-85.134310	-52.218015
01752		-0.423312	0.585765	0.366915	0.585713	-56.051857	-85.428988	-55.944424
01753		-0.420324	0.584847	0.367393	0.588477	-52.201061	-85.699987	-60.047659
01754		-0.417410	0.583919	0.367931	0.591130	-47.951753	-85.947596	-64.534930
01755		-0.414550	0.583021	0.368461	0.593693	-43.321841	-86.165996	-69.396871
01756		-0.411776	0.582138	0.368957	0.596177	-38.319906	-86.348076	-74.624408
01757		-0.409031	0.581284	0.369399	0.598621	-32.959656	-86.494319	-80.211516
01758		-0.406287	0.580472	0.369712	0.601079	-27.306275	-86.597867	-86.102902
01759		-0.403596	0.579725	0.369956	0.603459	-21.620047	-86.663597	-92.027535
01760		-0.400951	0.579046	0.370221	0.605707	-15.994014	-86.703064	-97.884634
01761		-0.398435	0.578382	0.370484	0.607837	-10.547700	-86.709359	-103.548916
01762		-0.396076	0.577731	0.370699	0.609863	-5.452073	-86.681924	-108.850990
01763		-0.393804	0.577135	0.370866	0.611794	-0.749774	-86.631803	-113.755242
01764		-0.391625	0.576581	0.371005	0.613628	3.550489	-86.563910	-118.250817
01765		-0.389606	0.575992	0.371150	0.615376	7.451299	-86.475224	-122.330186
01766		-0.387784	0.575421	0.371286	0.616977	10.826223	-86.376518	-125.865274
01767		-0.386195	0.574840	0.371328	0.618488	13.597166	-86.263094	-128.782533
01768		-0.384842	0.574257	0.371379	0.619841	15.892562	-86.147974	-131.200515
01769		-0.383711	0.573679	0.371470	0.621022	17.799793	-86.036839	-133.205105
01770		-0.382789	0.573104	0.371442	0.622137	19.223421	-85.921057	-134.717241
01771		-0.382139	0.572532	0.371269	0.623167	20.099190	-85.802708	-135.669296
01772		-0.381853	0.571898	0.371119	0.624013	20.557748	-85.687564	-136.166855
01773		-0.381982	0.571156	0.371024	0.624669	20.624974	-85.572822	-136.228090
01774		-0.382585	0.570226	0.370989	0.625170	20.310261	-85.448714	-135.855902
01775		-0.383723	0.569085	0.371062	0.625470	19.631226	-85.316129	-135.057362
01776		-0.385303	0.567785	0.371211	0.625592	18.671734	-85.177390	-133.928271
01777		-0.387225	0.566368	0.371389	0.625582	17.502022	-85.031798	-132.552738
01778		-0.389416	0.564865	0.371647	0.625428	16.243228	-84.884119	-131.054205
01779		-0.391857	0.563221	0.372026	0.625161	14.979061	-84.728234	-129.513869
01780		-0.394620	0.561307	0.372466	0.624883	13.678186	-84.542712	-127.898280
01781		-0.397776	0.559060	0.373140	0.624494	12.446134	-84.332359	-126.289160
01782		-0.401353	0.556468	0.374007	0.624001	11.253083	-84.093711	-124.657369
01783		-0.405400	0.553508	0.375032	0.623403	10.065121	-83.822068	-122.966813
01784		-0.409877	0.550165	0.376229	0.622713	8.949806	-83.516625	-121.286876
01785		-0.414711	0.546511	0.377667	0.621858	7.963578	-83.192759	-119.674015
01786		-0.419889	0.542550	0.379329	0.620840	7.100687	-82.850837	-118.124543
01787		-0.425442	0.538211	0.381171	0.619707	6.348910	-82.479606	-116.626280
01788		-0.431338	0.533476	0.383144	0.618508	5.717515	-82.073951	-115.194956
01789		-0.437445	0.528366	0.385273	0.617281	5.280427	-81.639314	-113.914282
01790		-0.443758	0.522861	0.387620	0.615992	5.049198	-81.180052	-112.789298
01791		-0.450175	0.516973	0.390124	0.614723	5.030736	-80.694020	-111.841974
01792		-0.456702	0.510717	0.392660	0.613523	5.150296	-80.173627	-111.008236
01793		-0.463325	0.504189	0.395008	0.612447	5.294097	-79.613165	-110.196816
01794		-0.470022	0.497453	0.397109	0.611493	5.430107	-79.015373	-109.383408
01795		-0.476662	0.490561	0.399101	0.610624	5.632306	-78.398270	-108.642364
01796		-0.483245	0.483521	0.401051	0.609787	5.904061	-77.768926	-107.970392
01797		-0.489761	0.476256	0.403020	0.609007	6.281001	-77.123594	-107.396757
01798		-0.496229	0.468702	0.404991	0.608324	6.758248	-76.453832	-106.915309
01799		-0.502626	0.460875	0.406890	0.607785	7.309536	-75.754879	-106.508579
01800		-0.508962	0.452763	0.408660	0.607422	7.912376	-75.020914	-106.158011
01801		-0.515244	0.444331	0.410279	0.607260	8.560349	-74.246112	-105.857212
01802		-0.521465	0.435589	0.411743	0.607293	9.244144	-73.431368	-105.597466
01803		-0.527568	0.426605	0.413179	0.607424	9.977482	-72.596044	-105.386328
01804		-0.533526	0.417410	0.414637	0.607615	10.761526	-71.747896	-105.222996
01805		-0.539276	0.408027	0.416066	0.607934	11.591564	-70.883781	-105.114231
01806		-0.544800	0.398378	0.417395	0.608497	12.469754	-69.987471	-105.069515
01807		-0.550065	0.388518	0.418578	0.609323	13.375949	-69.060167	-105.077270
01808		-0.554983	0.378567	0.419567	0.610447	14.293343	-68.108909	-105.137444
01809		-0.559522	0.368645	0.420409	0.611795	15.209974	-67.150171	-105.239787
01810		-0.563720	0.358819	0.420957	0.613403	16.082223	-66.178108	-105.352872
01811		-0.567599	0.349205	0.421205	0.615203	16.889057	-65.204960	-105.457870
01812		-0.571073	0.339891	0.421280	0.617150	17.657071	-64.248859	-105.581538
01813		-0.574027	0.330915	0.421234	0.619314	18.411455	-63.313918	-105.759417
01814		-0.576460	0.322207	0.420990	0.621807	19.150629	-62.383354	-105.997538
01815		-0.578549	0.313604	0.420511	0.624583	19.860292	-61.439928	-106.260679
01816		-0.580399	0.305019	0.419852	0.627555	20.542741	-60.481324	-106.531980
01817		-0.582061	0.296474	0.419073	0.630623	21.197155	-59.516922	-106.799378
01818		-0.583509	0.288037	0.418188	0.633774	21.822508	-58.554247	-107.066073
01819		-0.584677	0.279858	0.417370	0.636894	22.437365	-57.621987	-107.346899
01820		-0.585563	0.272044	0.416544	0.640000	23.022325	-56.724376	-107.634668
01821		-0.586142	0.264653	0.415575	0.643190	23.558322	-55.854716	-107.929493
01822		-0.586440	0.257456	0.414537	0.646501	24.076918	-54.994126	-108.245724
01823		-0.586611	0.250356	0.413573	0.649744	24.589795	-54.149380	-108.560097
01824		-0.586742	0.243365	0.412628	0.652874	25.080009	-53.320231	-108.851792
01825		-0.586877	0.236601	0.411591	0.655887	25.519982	-52.511387	-109.104323
01826		-0.586874	0.230220	0.410449	0.658870	25.912546	-51.733047	-109.345045
01827		-0.586561	0.224430	0.409143	0.661952	26.251425	-50.995606	-109.602778
01828		-0.586027	0.219154	0.407671	0.665092	26.536220	-50.293608	-109.865070
01829		-0.585285	0.214463	0.406257	0.668134	26.791648	-49.652449	-110.137854
01830		-0.584469	0.210122	0.404938	0.671021	27.030353	-49.055131	-110.405380
01831		-0.583588	0.206109	0.403411	0.673946	27.215256	-48.474815	-110.658662
01832		-0.582595	0.202523	0.401474	0.677042	27.317978	-47.904395	-110.898980
01833		-0.581412	0.199565	0.399322	0.680203	27.357107	-47.377378	-111.144568
01834		-0.579986	0.197110	0.397463	0.683218	27.412462	-46.918609	-111.427377
01835		-0.578306	0.195008	0.395716	0.686253	27.472802	-46.497089	-111.748235
01836		-0.576449	0.193064	0.393815	0.689451	27.511688	-46.074713	-112.088588
01837		-0.574571	0.191326	0.391675	0.692714	27.503002	-45.656251	-112.415201
01838		-0.572745	0.189789	0.389352	0.695951	27.449757	-45.248546	-112.717204
01839		-0.570938	0.188567	0.387170	0.698979	27.388586	-44.886839	-113.009748
01840		-0.569162	0.187475	0.385139	0.701837	27.333283	-44.552918	-113.295538
01841		-0.567245	0.186603	0.383313	0.704616	27.296832	-44.253300	-113.606180
01842		-0.565122	0.185815	0.381796	0.707348	27.306044	-43.978929	-113.959388
01843		-0.562960	0.185189	0.380244	0.710067	27.300403	-43.718700	-114.312430
01844		-0.560766	0.184954	0.378459	0.712814	27.239436	-43.482124	-114.653804
01845		-0.558594	0.185198	0.376701	0.715382	27.147525	-43.300109	-114.980927
01846		-0.556549	0.185616	0.374854	0.717832	27.023311	-43.136029	-115.277567
01847		-0.554680	0.185902	0.372735	0.720305	26.860763	-42.946060	-115.535388
01848		-0.552989	0.185851	0.370523	0.722755	26.695879	-42.721860	-115.763546
01849		-0.551342	0.185654	0.368645	0.725021	26.578890	-42.508898	-115.996038
01850		-0.549647	0.185188	0.367619	0.726945	26.588638	-42.327305	-116.267129
01851		-0.547977	0.184269	0.367448	0.728525	26.731881	-42.159335	-116.566918
01852		-0.546545	0.182842	0.367754	0.729804	26.950301	-41.979578	-116.846597
01853		-0.545415	0.181168	0.368309	0.730787	27.194878	-41.801531	-117.083780
01854		-0.544424	0.179484	0.369163	0.731510	27.467475	-41.647865	-117.304623
01855		-0.543426	0.177911	0.370167	0.732129	27.751487	-41.515637	-117.528192
01856		-0.542341	0.176375	0.371174	0.732795	28.037551	-41.383741	-117.764423
01857		-0.541184	0.174899	0.372057	0.733556	28.307437	-41.246398	-118.006337
01858		-0.540095	0.173493	0.372675	0.734378	28.534264	-41.100217	-118.225926
01859		-0.539055	0.172326	0.373148	0.735176	28.724406	-40.970868	-118.428369
01860		-0.537997	0.171450	0.373557	0.735948	28.889861	-40.866688	-118.628125
01861		-0.536936	0.170807	0.373857	0.736720	29.027578	-40.779381	-118.821759
01862		-0.535917	0.170221	0.373830	0.737611	29.117271	-40.677165	-118.996544
01863		-0.534885	0.169720	0.373682	0.738549	29.187047	-40.575321	-119.168256
01864		-0.533836	0.169367	0.373699	0.739380	29.269817	-40.499541	-119.346313
01865		-0.532818	0.169141	0.373887	0.740071	29.365126	-40.449662	-119.523338
01866		-0.531911	0.169027	0.374045	0.740669	29.443866	-40.413893	-119.679915
01867		-0.530983	0.169153	0.374039	0.741309	29.489199	-40.391443	-119.832621
01868		-0.530121	0.169504	0.373720	0.742007	29.478225	-40.374362	-119.962360
01869		-0.529315	0.169967	0.373199	0.742738	29.432028	-40.357949	-120.075316
01870		-0.528538	0.170502	0.372836	0.743350	29.400249	-40.361048	-120.187959
01871		-0.527806	0.171024	0.372749	0.743794	29.402072	-40.382813	-120.302431
01872		-0.527184	0.171369	0.372847	0.744107	29.431273	-40.402333	-120.406103
01873		-0.526573	0.171462	0.373301	0.744290	29.519236	-40.419230	-120.521301
01874		-0.526070	0.171318	0.374044	0.744307	29.651121	-40.434009	-120.630007
01875		-0.525713	0.170976	0.375025	0.744143	29.816314	-40.449129	-120.723749
01876		-0.525494	0.170373	0.376131	0.743878	30.003916	-40.449904	-120.800704
01877		-0.525336	0.169508	0.377465	0.743512	30.231568	-40.440217	-120.876454
01878		-0.525204	0.168441	0.379073	0.743029	30.503930	-40.428178	-120.957786
01879		-0.525097	0.167249	0.380895	0.742442	30.809146	-40.417918	-121.042626
01880		-0.525004	0.165934	0.382903	0.741770	31.144390	-40.407565	-121.131536
01881		-0.524987	0.164551	0.384914	0.741048	31.479064	-40.393272	-121.207543
01882		-0.525053	0.163248	0.386565	0.740431	31.758267	-40.367011	-121.257092
01883		-0.525037	0.162116	0.388055	0.739911	32.011922	-40.345039	-121.313389
01884		-0.525034	0.161191	0.389253	0.739485	32.216258	-40.326255	-121.356918
01885		-0.525100	0.160234	0.390179	0.739158	32.382755	-40.288970	-121.379560
01886		-0.525097	0.159391	0.391068	0.738873	32.542252	-40.258474	-121.411804
01887		-0.525076	0.158561	0.391814	0.738671	32.683356	-40.219167	-121.441734
01888		-0.525192	0.157674	0.392443	0.738445	32.804576	-40.171925	-121.445223
01889		-0.525409	0.156678	0.393208	0.738095	32.943330	-40.126503	-121.436694
01890		-0.525588	0.155637	0.394083	0.737721	33.100878	-40.082013	-121.437888
01891		-0.525706	0.154689	0.395108	0.737288	33.276618	-40.054945	-121.453916
01892		-0.525886	0.153810	0.396007	0.736862	33.428723	-40.029523	-121.455088
01893		-0.526207	0.152883	0.396551	0.736532	33.529391	-39.981684	-121.421224
01894		-0.526693	0.151879	0.396865	0.736224	33.594900	-39.917611	-121.352576
01895		-0.527044	0.151206	0.397287	0.735883	33.664977	-39.890005	-121.309402
01896		-0.527234	0.150963	0.397795	0.735523	33.733326	-39.906387	-121.295595
01897		-0.527407	0.150787	0.398146	0.735245	33.778773	-39.918740	-121.279197
01898		-0.527773	0.150506	0.398278	0.734968	33.790341	-39.913792	-121.224007
01899		-0.528161	0.150445	0.398514	0.734574	33.803283	-39.939978	-121.168925
01900		-0.528267	0.150869	0.398858	0.734224	33.820892	-40.012179	-121.163635
01901		-0.528249	0.151699	0.398742	0.734129	33.764723	-40.090948	-121.163152
01902		-0.528253	0.152754	0.398033	0.734292	33.617960	-40.154955	-121.138595
01903		-0.528369	0.153661	0.397031	0.734562	33.434338	-40.188461	-121.085700
01904		-0.528663	0.154084	0.396323	0.734644	33.303966	-40.198396	-121.013485
01905		-0.529009	0.153987	0.396557	0.734289	33.320424	-40.218691	-120.964900
01906		-0.529198	0.153555	0.397757	0.733593	33.489026	-40.261612	-120.974923
01907		-0.529271	0.153104	0.399192	0.732855	33.695870	-40.313406	-121.012050
01908		-0.529335	0.152685	0.400257	0.732316	33.853392	-40.343385	-121.038012
01909		-0.529461	0.152322	0.400765	0.732022	33.931515	-40.344718	-121.034660
01910		-0.529522	0.152175	0.401087	0.731832	33.977920	-40.353497	-121.035649
01911		-0.529387	0.152189	0.401357	0.731779	34.020106	-40.367135	-121.067056
01912		-0.529174	0.152274	0.401196	0.732004	34.006365	-40.356065	-121.096383
01913		-0.529002	0.152271	0.400921	0.732279	33.979892	-40.329705	-121.114982
01914		-0.528737	0.152187	0.400919	0.732489	33.998489	-40.309243	-121.158194
01915		-0.528402	0.151928	0.401243	0.732607	34.072440	-40.288957	-121.223702
01916		-0.528129	0.151473	0.401869	0.732555	34.192761	-40.270930	-121.289433
01917		-0.527811	0.150914	0.402706	0.732440	34.348376	-40.253880	-121.369496
01918		-0.527474	0.150390	0.403597	0.732300	34.510250	-40.243394	-121.454261
01919		-0.527138	0.149879	0.404541	0.732126	34.678418	-40.237603	-121.540771
01920		-0.526741	0.149487	0.405358	0.732040	34.827307	-40.233001	-121.632819
01921		-0.526356	0.149193	0.405890	0.732082	34.933015	-40.220391	-121.713094
01922		-0.526015	0.148973	0.406521	0.732022	35.045686	-40.223762	-121.789826
01923		-0.525620	0.148730	0.407263	0.731942	35.177305	-40.229801	-121.879165
01924		-0.525206	0.148523	0.408025	0.731857	35.310741	-40.239896	-121.972278
01925		-0.524837	0.148257	0.408826	0.731729	35.449848	-40.248377	-122.059408
01926		-0.524468	0.148046	0.409715	0.731539	35.598095	-40.268272	-122.149671
01927		-0.524166	0.147827	0.410443	0.731392	35.721762	-40.279633	-122.223498
01928		-0.523905	0.147619	0.411018	0.731298	35.822420	-40.283956	-122.285265
01929		-0.523682	0.147392	0.411521	0.731220	35.912227	-40.283108	-122.338159
01930		-0.523489	0.147085	0.412105	0.731091	36.015190	-40.280477	-122.388766
01931		-0.523271	0.146678	0.412935	0.730861	36.157037	-40.282496	-122.451815
01932		-0.523045	0.146279	0.413833	0.730595	36.308000	-40.289311	-122.518422
01933		-0.522860	0.145928	0.414449	0.730448	36.416960	-40.284573	-122.568510
